"Time (s)","Gyroscope x (rad/s)","Gyroscope y (rad/s)","Gyroscope z (rad/s)"
1.445602100E-2,-8.234463334E-1,-1.248761296E0,-4.749477282E-2
1.665221900E-2,-8.587238193E-1,-1.302975535E0,-2.351831272E-2
1.884841800E-2,-8.891143799E-1,-1.351081252E0,-1.985311974E-3
2.103956000E-2,-9.097310901E-1,-1.397965074E0,1.832595654E-2
2.323128800E-2,-9.254608750E-1,-1.441031098E0,3.756821156E-2
2.542257800E-2,-9.326385260E-1,-1.479210138E0,5.299255997E-2
2.761635000E-2,-9.373727441E-1,-1.516167521E0,6.719517708E-2
2.981371000E-2,-9.335548282E-1,-1.545641780E0,7.910704613E-2
3.200803100E-2,-9.297369123E-1,-1.572672606E0,9.101892263E-2
3.420493600E-2,-9.199630618E-1,-1.596038222E0,1.004873365E-1
3.639832200E-2,-9.063712955E-1,-1.614516854E0,1.075122803E-1
3.859241500E-2,-8.929322958E-1,-1.629177570E0,1.122464910E-1
4.078817800E-2,-8.770498037E-1,-1.640173197E0,1.143845171E-1
4.298888100E-2,-8.611672521E-1,-1.649947047E0,1.166752651E-1
4.518241300E-2,-8.439103365E-1,-1.653612256E0,1.178969890E-1
4.737478300E-2,-8.268061280E-1,-1.657277465E0,1.177442744E-1
4.956851300E-2,-8.121453524E-1,-1.654681206E0,1.153008118E-1
5.175450100E-2,-7.976372838E-1,-1.649794340E0,1.128573567E-1
5.394813700E-2,-7.841982841E-1,-1.637424231E0,1.116356254E-1
5.614193800E-2,-7.719809413E-1,-1.622763515E0,1.105666086E-1
5.833542900E-2,-7.622070909E-1,-1.599397898E0,1.084285825E-1
6.052625300E-2,-7.550294399E-1,-1.573588848E0,1.073595658E-1
6.271930900E-2,-7.476990819E-1,-1.545336366E0,1.064432710E-1
6.491262300E-2,-7.417431474E-1,-1.514793038E0,1.079704314E-1
6.710615600E-2,-7.380779386E-1,-1.482875347E0,1.108720452E-1
6.929783200E-2,-7.345654368E-1,-1.449888706E0,1.148426682E-1
7.149133200E-2,-7.345654368E-1,-1.419192672E0,1.200350225E-1
7.368471900E-2,-7.357872128E-1,-1.388649464E0,1.276708394E-1
7.587817900E-2,-7.359399199E-1,-1.360549569E0,1.354593635E-1
7.807626600E-2,-7.408268452E-1,-1.332449794E0,1.467603743E-1
8.027008800E-2,-7.444919944E-1,-1.309389710E0,1.580613852E-1
8.246325800E-2,-7.481572032E-1,-1.284955025E0,1.728748679E-1
8.465766200E-2,-7.567093372E-1,-1.266781807E0,1.878410578E-1
8.685147300E-2,-7.652614117E-1,-1.247386813E0,2.040289938E-1
8.904517200E-2,-7.762570381E-1,-1.235322237E0,2.212859392E-1
9.123866200E-2,-7.848091125E-1,-1.225701094E0,2.397646159E-1
9.343097000E-2,-7.958046794E-1,-1.222188592E0,2.580905557E-1
9.562421100E-2,-8.054258227E-1,-1.227380991E0,2.776382565E-1
9.781209900E-2,-8.139779568E-1,-1.233642340E0,2.971859276E-1
1.000063990E-1,-8.199338913E-1,-1.247386813E0,3.190243840E-1
1.022001710E-1,-8.258898258E-1,-1.263574719E0,3.396410644E-1
1.043974390E-1,-8.295549750E-1,-1.287093043E0,3.625485301E-1
1.065963770E-1,-8.306240439E-1,-1.315498352E0,3.830125034E-1
1.087895150E-1,-8.292495608E-1,-1.350012183E0,4.045455158E-1
1.109830880E-1,-8.290968537E-1,-1.386969566E0,4.273002446E-1
1.131724490E-1,-8.240572214E-1,-1.426370382E0,4.500549734E-1
1.153659910E-1,-8.164213896E-1,-1.471879840E0,4.715879560E-1
1.175594520E-1,-8.077165484E-1,-1.521207213E0,4.941899776E-1
1.197529520E-1,-7.929030657E-1,-1.575268745E0,5.141957998E-1
1.219467440E-1,-7.768678665E-1,-1.631773829E0,5.367978215E-1
1.241399240E-1,-7.582364678E-1,-1.698052645E0,5.566509366E-1
1.263334040E-1,-7.409795523E-1,-1.761888027E0,5.754350424E-1
1.285274250E-1,-7.284567952E-1,-1.818393111E0,5.893322229E-1
1.307210290E-1,-7.197519541E-1,-1.863902569E0,6.047565937E-1
1.329154650E-1,-7.136433125E-1,-1.893376827E0,6.104071140E-1
1.351042550E-1,-7.049384713E-1,-1.914146304E0,6.139195561E-1
1.372973310E-1,-6.988298297E-1,-1.931403160E0,6.160575747E-1
1.394910710E-1,-6.866125464E-1,-1.942398787E0,6.159048676E-1
1.416783770E-1,-6.670648456E-1,-1.953241587E0,6.145304441E-1
1.438762990E-1,-6.461427212E-1,-1.958128572E0,6.168211699E-1
1.460697590E-1,-6.217080951E-1,-1.965458870E0,6.191119552E-1
1.482638720E-1,-5.984952450E-1,-1.972789288E0,6.214026809E-1
1.504628510E-1,-5.752823353E-1,-1.979966998E0,6.200281978E-1
1.526563520E-1,-5.581781268E-1,-1.992184281E0,6.209445000E-1
1.548495620E-1,-5.384777188E-1,-2.004401684E0,6.183483601E-1
1.570424830E-1,-5.238169432E-1,-2.016618967E0,6.157521605E-1
1.592360990E-1,-5.091561675E-1,-2.030057907E0,6.105598211E-1
1.614300670E-1,-4.920519590E-1,-2.048231125E0,6.065891981E-1
1.636235480E-1,-4.761694670E-1,-2.062891960E0,5.991060734E-1
1.658168310E-1,-4.578435123E-1,-2.077399969E0,5.902485251E-1
1.680103530E-1,-4.395175576E-1,-2.088242769E0,5.791002512E-1
1.702037290E-1,-4.211915731E-1,-2.094198704E0,5.655084848E-1
1.723980300E-1,-4.016439021E-1,-2.091602564E0,5.484042764E-1
1.745914690E-1,-3.834706545E-1,-2.083966732E0,5.288565755E-1
1.767866720E-1,-3.590360582E-1,-2.073887587E0,5.080871582E-1
1.789801630E-1,-3.433062732E-1,-2.058921337E0,4.825835526E-1
1.811732800E-1,-3.200933933E-1,-2.038915396E0,4.583016634E-1
1.833664800E-1,-2.994766831E-1,-2.016618967E0,4.315762818E-1
1.855579680E-1,-2.800817192E-1,-1.992947817E0,4.037819207E-1
1.877515320E-1,-2.594650090E-1,-1.964389920E0,3.758348525E-1
1.899449600E-1,-2.388483137E-1,-1.934762955E0,3.492622077E-1
1.921393850E-1,-2.194533348E-1,-1.901318073E0,3.214678466E-1
1.943226790E-1,-2.000583708E-1,-1.865429759E0,2.948952019E-1
1.964664270E-1,-1.818851233E-1,-1.828319669E0,2.684752643E-1
1.986033690E-1,-1.637118906E-1,-1.787544370E0,2.431243658E-1
2.007502800E-1,-1.443169117E-1,-1.745700121E0,2.203696370E-1
2.029233660E-1,-1.261436790E-1,-1.703703165E0,1.988366395E-1
2.050772050E-1,-1.079704314E-1,-1.659415483E0,1.795943826E-1
2.072273520E-1,-8.979719132E-2,-1.614974976E0,1.605048478E-1
2.093740390E-1,-7.528914511E-2,-1.568243742E0,1.426370293E-1
2.115251920E-1,-6.078109145E-2,-1.522734284E0,1.272126883E-1
2.136749420E-1,-4.871650413E-2,-1.480890036E0,1.154535338E-1
2.158244270E-1,-3.909537569E-2,-1.435380578E0,1.024726480E-1
2.179791510E-1,-2.947424725E-2,-1.389871120E0,9.330966324E-2
2.201393270E-1,-2.718350291E-2,-1.340696454E0,8.521570265E-2
2.222789750E-1,-2.611448988E-2,-1.296561480E0,8.093964309E-2
2.244270170E-1,-2.504547499E-2,-1.249982953E0,7.895433158E-2
2.265737650E-1,-3.115412779E-2,-1.203404546E0,7.712173462E-2
2.287291610E-1,-4.108068720E-2,-1.158200502E0,8.002334833E-2
2.308789500E-1,-5.222897977E-2,-1.114065528E0,8.429940045E-2
2.330308360E-1,-6.933320314E-2,-1.072526693E0,9.086620808E-2
2.351800260E-1,-8.659014851E-2,-1.034653068E0,9.987647086E-2
2.373173960E-1,-1.098030284E-1,-9.993755221E-1,1.114829108E-1
2.394679700E-1,-1.343903542E-1,-9.663888216E-1,1.229366288E-1
2.416310140E-1,-1.612684280E-1,-9.335548282E-1,1.343903542E-1
2.437855050E-1,-1.869247705E-1,-8.994990587E-1,1.507309973E-1
2.459356510E-1,-2.212859392E-1,-8.691084981E-1,1.634064466E-1
2.480841390E-1,-2.530509233E-1,-8.387179971E-1,1.797471046E-1
2.502331160E-1,-2.884811163E-1,-8.022187948E-1,1.950187236E-1
2.523840760E-1,-3.228422701E-1,-7.669413090E-1,2.113593817E-1
2.545363990E-1,-3.570507467E-1,-7.315111160E-1,2.266310006E-1
2.566939300E-1,-3.949243724E-1,-6.913467646E-1,2.429716438E-1
2.588361330E-1,-4.317290187E-1,-6.499606371E-1,2.594650090E-1
2.609884960E-1,-4.696026444E-1,-6.085745096E-1,2.747366428E-1
2.631323770E-1,-5.076290369E-1,-5.635231733E-1,2.889392674E-1
2.652750560E-1,-5.430592299E-1,-5.196936131E-1,3.042109013E-1
2.674354760E-1,-5.810855627E-1,-4.721988440E-1,3.207042515E-1
2.695832330E-1,-6.189591885E-1,-4.245513380E-1,3.336851299E-1
2.717206830E-1,-6.557638645E-1,-3.782783151E-1,3.477350473E-1
2.738761090E-1,-6.913467646E-1,-3.330742717E-1,3.605632186E-1
2.760384110E-1,-7.267768979E-1,-2.868012190E-1,3.735440969E-1
2.781949870E-1,-7.574729323E-1,-2.415972054E-1,3.851505518E-1
2.803448180E-1,-7.904596329E-1,-2.002110779E-1,3.967569768E-1
2.824912720E-1,-8.235990405E-1,-1.611157060E-1,4.069889784E-1
2.846410930E-1,-8.565858006E-1,-1.185078546E-1,4.149302244E-1
2.867908720E-1,-8.885034919E-1,-7.330382615E-2,4.216497242E-1
2.889445390E-1,-9.191994667E-1,-2.809980139E-2,4.273002446E-1
2.910933010E-1,-9.497427344E-1,1.343903504E-2,4.314235747E-1
2.932441600E-1,-9.792169929E-1,5.009094998E-2,4.344778955E-1
2.953920270E-1,-1.009760261E0,8.185594529E-2,4.361577928E-1
2.975442600E-1,-1.034347534E0,1.123992056E-1,4.390594065E-1
2.996915260E-1,-1.058782220E0,1.343903542E-1,4.381431043E-1
3.018334130E-1,-1.083369493E0,1.527163088E-1,4.384485185E-1
3.039978520E-1,-1.105360627E0,1.685988009E-1,4.363104999E-1
3.061456480E-1,-1.124908328E0,1.783726513E-1,4.352414906E-1
3.083025800E-1,-1.142165303E0,1.869247705E-1,4.329507351E-1
3.104472730E-1,-1.156826019E0,1.905899495E-1,4.306600094E-1
3.125995050E-1,-1.171486855E0,1.918116808E-1,4.294382632E-1
3.147485020E-1,-1.181260705E0,1.942551434E-1,4.259257913E-1
3.168976200E-1,-1.189812779E0,1.942551434E-1,4.222606122E-1
3.190493750E-1,-1.195921421E0,1.893682331E-1,4.198171496E-1
3.211997750E-1,-1.199586630E0,1.832595766E-1,4.147774875E-1
3.233504510E-1,-1.198364854E0,1.759291887E-1,4.111123085E-1
3.254994270E-1,-1.195921421E0,1.685988009E-1,4.072943926E-1
3.276502750E-1,-1.193477988E0,1.563815027E-1,4.034765065E-1
3.298034020E-1,-1.187369347E0,1.429424733E-1,3.984368443E-1
3.319586450E-1,-1.178664446E0,1.307251602E-1,3.933972120E-1
3.341036340E-1,-1.170112371E0,1.149953827E-1,3.871358633E-1
3.362522840E-1,-1.156673312E0,9.911288321E-2,3.819434941E-1
3.383899800E-1,-1.144456029E0,8.323039114E-2,3.756821156E-1
3.405546010E-1,-1.127351761E0,6.872233748E-2,3.692680299E-1
3.427045950E-1,-1.111469269E0,5.161811411E-2,3.604104817E-1
3.448592270E-1,-1.092990637E0,3.466660157E-2,3.553708494E-1
3.470079500E-1,-1.069777727E0,2.000583708E-2,3.489567637E-1
3.491593270E-1,-1.049008369E0,4.276056774E-3,3.413209617E-1
3.513139090E-1,-1.025795460E0,-7.941247895E-3,3.375030458E-1
3.534572490E-1,-1.005026102E0,-1.634064503E-2,3.312416673E-1
3.556033370E-1,-9.805914164E-1,-2.855795063E-2,3.284927905E-1
3.577439410E-1,-9.561568499E-1,-3.588833287E-2,3.295617998E-1
3.599092340E-1,-9.303477407E-1,-4.184427112E-2,3.306308091E-1
3.620603270E-1,-9.071348906E-1,-5.039638281E-2,3.329215646E-1
3.642131390E-1,-8.839219809E-1,-5.894849449E-2,3.376557529E-1
3.663603140E-1,-8.593347073E-1,-7.483099401E-2,3.446807265E-1
3.685109600E-1,-8.373435140E-1,-9.697485715E-2,3.541491330E-1
3.706584400E-1,-8.151996732E-1,-1.215621829E-1,3.610213697E-1
3.728027690E-1,-7.944302559E-1,-1.484402567E-1,3.717114925E-1
3.749740930E-1,-7.747298479E-1,-1.791362315E-1,3.822489381E-1
3.771135890E-1,-7.550294399E-1,-2.147191316E-1,3.940080702E-1
3.792736440E-1,-7.353290319E-1,-2.551889420E-1,4.043927789E-1
3.814124580E-1,-7.180721164E-1,-3.019201458E-1,4.172209501E-1
3.835626960E-1,-7.020368576E-1,-3.523165286E-1,4.312708676E-1
3.857001260E-1,-6.896668673E-1,-4.111123085E-1,4.415028691E-1
3.878637720E-1,-6.771441102E-1,-4.749477208E-1,4.554000497E-1
3.900156570E-1,-6.672175527E-1,-5.436700583E-1,4.692972302E-1
3.921692830E-1,-6.572909951E-1,-6.111706495E-1,4.831944108E-1
3.943147710E-1,-6.472117305E-1,-6.898195744E-1,4.980078936E-1
3.964632070E-1,-6.421720982E-1,-7.634288669E-1,5.143485069E-1
3.986050840E-1,-6.357579827E-1,-8.396342993E-1,5.305364728E-1
4.007693900E-1,-6.294966340E-1,-9.132435322E-1,5.442809463E-1
4.029197000E-1,-6.255260110E-1,-9.795224071E-1,5.606215596E-1
4.050737610E-1,-6.217080951E-1,-1.042136073E0,5.757405162E-1
4.072186900E-1,-6.166684628E-1,-1.098641157E0,5.885686874E-1
4.093704330E-1,-6.116288304E-1,-1.144150615E0,6.015495658E-1
4.115207630E-1,-6.065891981E-1,-1.182176948E0,6.145304441E-1
4.136714480E-1,-5.991060734E-1,-1.216690898E0,6.250678897E-1
4.158208410E-1,-5.879577994E-1,-1.243721604E0,6.382014751E-1
4.179695430E-1,-5.794056654E-1,-1.268308997E0,6.487388611E-1
4.201110420E-1,-5.658139586E-1,-1.286634922E0,6.583600044E-1
4.222777090E-1,-5.499314666E-1,-1.302670121E0,6.690501571E-1
4.244235430E-1,-5.363397002E-1,-1.311375022E0,6.762278080E-1
4.265765270E-1,-5.167919993E-1,-1.313818455E0,6.834055185E-1
4.287210990E-1,-4.996877611E-1,-1.313818455E0,6.882924438E-1
4.308596280E-1,-4.801400900E-1,-1.306335330E0,6.931793094E-1
4.330145760E-1,-4.569272101E-1,-1.292896271E0,6.956228018E-1
4.351828090E-1,-4.337143302E-1,-1.271974206E0,6.982190013E-1
4.373391300E-1,-4.094324410E-1,-1.249830246E0,6.959282160E-1
4.394843020E-1,-3.849978149E-1,-1.220355988E0,6.937901974E-1
4.416270420E-1,-3.594942093E-1,-1.187063932E0,6.904304624E-1
4.437763350E-1,-3.313944042E-1,-1.151481032E0,6.846272349E-1
4.459270900E-1,-3.046690524E-1,-1.115745425E0,6.776022911E-1
4.480788340E-1,-2.779437006E-1,-1.078788042E0,6.705773473E-1
4.502313400E-1,-2.510656118E-1,-1.040609002E0,6.623306274E-1
4.523819960E-1,-2.231185287E-1,-9.975429177E-1,6.493497491E-1
4.545315010E-1,-1.951714456E-1,-9.532552361E-1,6.398813725E-1
4.566801620E-1,-1.672243625E-1,-9.065240026E-1,6.305656433E-1
4.588324250E-1,-1.380555481E-1,-8.561276197E-1,6.249151230E-1
4.609842190E-1,-1.113301888E-1,-8.057312369E-1,6.192646623E-1
4.631314360E-1,-8.567385375E-2,-7.590000629E-1,6.148358583E-1
4.652750710E-1,-6.383541971E-2,-7.173085213E-1,6.139195561E-1
4.674292970E-1,-4.444044828E-2,-6.805039048E-1,6.180428863E-1
4.695725780E-1,-2.611448988E-2,-6.499606371E-1,6.232352853E-1
4.717337090E-1,-1.023199316E-2,-6.253733039E-1,6.294966340E-1
4.738722900E-1,1.985311974E-3,-6.058256030E-1,6.382014751E-1
4.760378470E-1,1.175915636E-2,-5.911648273E-1,6.493497491E-1
4.781833660E-1,2.031126991E-2,-5.766568184E-1,6.617197990E-1
4.803242130E-1,2.275473066E-2,-5.644394755E-1,6.753115058E-1
4.824726610E-1,2.519819140E-2,-5.523748994E-1,6.899722815E-1
4.846274570E-1,2.519819140E-2,-5.464189649E-1,7.047857642E-1
4.867825470E-1,2.153299935E-2,-5.404630303E-1,7.206682563E-1
4.889261520E-1,1.435533352E-2,-5.345070958E-1,7.367035151E-1
4.910755860E-1,8.246680722E-3,-5.334380865E-1,7.538077235E-1
4.932253660E-1,-3.970623948E-3,-5.348125100E-1,7.733554244E-1
4.953806800E-1,-1.481348183E-2,-5.338962078E-1,7.930558324E-1
4.975432980E-1,-3.069597855E-2,-5.427537560E-1,8.136724830E-1
4.996931190E-1,-4.764748737E-2,-5.539020896E-1,8.344419003E-1
5.018394810E-1,-6.597344577E-2,-5.566509366E-1,8.564330935E-1
5.039954780E-1,-8.414668590E-2,-5.618433356E-1,8.808676600E-1
5.061389810E-1,-1.073595658E-1,-5.670356750E-1,9.028588533E-1
5.082845700E-1,-1.281289905E-1,-5.673410892E-1,9.262244105E-1
5.104432810E-1,-1.499674171E-1,-5.688682795E-1,9.506590366E-1
5.125949540E-1,-1.731802970E-1,-5.691736937E-1,9.764680862E-1
5.147474190E-1,-1.925752759E-1,-5.694791079E-1,1.002124429E0
5.168945230E-1,-2.145664245E-1,-5.710062981E-1,1.029002547E0
5.190474780E-1,-2.351831198E-1,-5.751296282E-1,1.057102323E0
5.211976030E-1,-2.559525371E-1,-5.815436840E-1,1.085202098E0
5.233441590E-1,-2.777909636E-1,-5.904012322E-1,1.113301873E0
5.254840000E-1,-2.947424948E-1,-6.006332636E-1,1.145066857E0
5.276466190E-1,-3.092505336E-1,-6.120869517E-1,1.177900910E0
5.298001820E-1,-3.251330256E-1,-6.209445000E-1,1.210887671E0
5.319579480E-1,-3.420845270E-1,-6.299547553E-1,1.247539520E0
5.340996110E-1,-3.529273868E-1,-6.377432942E-1,1.281595230E0
5.362507530E-1,-3.637702465E-1,-6.429356933E-1,1.317025423E0
5.384047460E-1,-3.735440969E-1,-6.421720982E-1,1.353677392E0
5.405511380E-1,-3.819434941E-1,-6.400340796E-1,1.391703725E0
5.427048860E-1,-3.880521357E-1,-6.294966340E-1,1.428508401E0
5.448602800E-1,-3.915646076E-1,-6.200281978E-1,1.463938594E0
5.469897570E-1,-3.927863538E-1,-6.044511795E-1,1.500743151E0
5.491562910E-1,-3.914119005E-1,-5.864306092E-1,1.538922310E0
5.513127140E-1,-3.889684379E-1,-5.621487498E-1,1.572061658E0
5.534582620E-1,-3.840815127E-1,-5.380195379E-1,1.607797384E0
5.556039320E-1,-3.790418804E-1,-5.102251768E-1,1.642311215E0
5.577510570E-1,-3.692680299E-1,-4.786129296E-1,1.676825047E0
5.599052520E-1,-3.607159257E-1,-4.421137273E-1,1.710117221E0
5.620560700E-1,-3.472768962E-1,-4.031710625E-1,1.743562102E0
5.642064310E-1,-3.350595832E-1,-3.568980098E-1,1.777006984E0
5.663559660E-1,-3.191770911E-1,-3.069597781E-1,1.808008432E0
5.685078110E-1,-3.020728528E-1,-2.507601976E-1,1.839162588E0
5.706582520E-1,-2.863430977E-1,-1.860084683E-1,1.867873192E0
5.728103920E-1,-2.667953968E-1,-1.175915599E-1,1.895514846E0
5.749600910E-1,-2.498438805E-1,-4.550946131E-2,1.923003793E0
5.771100550E-1,-2.304489166E-1,2.779436857E-2,1.949423671E0
5.792665490E-1,-2.121229619E-1,1.023199260E-1,1.973400116E0
5.814100220E-1,-1.927279830E-1,1.745547503E-1,1.994933128E0
5.835598940E-1,-1.733330190E-1,2.441933751E-1,2.012800932E0
5.857084930E-1,-1.562287807E-1,3.127630055E-1,2.031890631E0
5.878620070E-1,-1.356120855E-1,3.752239645E-1,2.045940399E0
5.900139430E-1,-1.149953827E-1,4.364632070E-1,2.056325197E0
5.921633070E-1,-9.666942805E-2,4.903720617E-1,2.064113617E0
5.943134740E-1,-7.360926270E-2,5.381723046E-1,2.069458723E0
5.964624490E-1,-5.177082866E-2,5.835290551E-1,2.072360277E0
5.986114670E-1,-3.100141138E-2,6.215553880E-1,2.072665691E0
6.007520510E-1,-6.719517522E-3,6.559165716E-1,2.071749449E0
6.029150150E-1,1.282817032E-2,6.867652535E-1,2.067167997E0
6.050623230E-1,3.100141138E-2,7.162395120E-1,2.060142994E0
6.072194580E-1,5.177082866E-2,7.434229851E-1,2.052965403E0
6.093669390E-1,6.872233748E-2,7.667886019E-1,2.042275190E0
6.115184690E-1,8.338310570E-2,7.864890099E-1,2.030210733E0
6.136680150E-1,9.666942805E-2,8.063421249E-1,2.015702486E0
6.158170930E-1,1.087340117E-1,8.225300312E-1,2.001194477E0
6.179684200E-1,1.172861308E-1,8.373435140E-1,1.983021259E0
6.201205890E-1,1.220203340E-1,8.535314798E-1,1.964848042E0
6.222748260E-1,1.232420653E-1,8.659014702E-1,1.944231391E0
6.244214840E-1,1.194241568E-1,8.857545853E-1,1.923614621E0
6.265697470E-1,1.143845171E-1,9.104946256E-1,1.904372454E0
6.287205150E-1,1.044579595E-1,9.387471676E-1,1.890169740E0
6.308717290E-1,9.101892263E-2,9.718865752E-1,1.874745488E0
6.330232380E-1,7.376197726E-2,1.007622242E0,1.858099341E0
6.351707490E-1,5.406157300E-2,1.048092008E0,1.845118523E0
6.373060130E-1,3.069597855E-2,1.093448758E0,1.832290292E0
6.394639020E-1,3.665191587E-3,1.147510409E0,1.822058320E0
6.416252670E-1,-2.336559631E-2,1.200197458E0,1.813048005E0
6.437784760E-1,-5.299255997E-2,1.258993268E0,1.806481242E0
6.459274630E-1,-8.613199741E-2,1.320232511E0,1.803579688E0
6.480783930E-1,-1.192714423E-1,1.380097270E0,1.798234582E0
6.502232790E-1,-1.536326110E-1,1.441336513E0,1.793042183E0
6.523644640E-1,-1.867720485E-1,1.498910546E0,1.790140629E0
6.545270620E-1,-2.211332172E-1,1.561371565E0,1.787238955E0
6.566779810E-1,-2.518292069E-1,1.618945599E0,1.784337401E0
6.588328270E-1,-2.813034356E-1,1.676366925E0,1.782657504E0
6.609787920E-1,-3.071125150E-1,1.730275750E0,1.784642816E0
6.631286340E-1,-3.316998184E-1,1.782810211E0,1.786628127E0
6.652747000E-1,-3.501785100E-1,1.831832170E0,1.789682508E0
6.674292720E-1,-3.613267839E-1,1.879479647E0,1.792736769E0
6.695812090E-1,-3.711006343E-1,1.922392964E0,1.800525308E0
6.717295840E-1,-3.688098788E-1,1.960266590E0,1.810757279E0
6.738693460E-1,-3.627012372E-1,1.985922933E0,1.823127270E0
6.760324000E-1,-3.455969989E-1,2.005317926E0,1.835497379E0
6.781830350E-1,-3.199406862E-1,2.021200418E0,1.851532578E0
6.803367920E-1,-2.880229652E-1,2.032196045E0,1.871080279E0
6.824842030E-1,-2.477058619E-1,2.039526224E0,1.890475273E0
6.846342270E-1,-2.012801021E-1,2.049147367E0,1.916131616E0
6.867841190E-1,-1.485929638E-1,2.061212063E0,1.946522117E0
6.889365230E-1,-8.979719132E-2,2.074651003E0,1.981952310E0
6.910864250E-1,-2.748893574E-2,2.094046116E0,2.023491144E0
6.932376000E-1,3.985895589E-2,2.114510059E0,2.070985794E0
6.953822930E-1,1.084285825E-1,2.141235352E0,2.122451305E0
6.975249730E-1,1.817324162E-1,2.174069405E0,2.174985647E0
6.996850680E-1,2.527455091E-1,2.210568666E0,2.227672815E0
7.018264040E-1,3.262020350E-1,2.248136759E0,2.282803535E0
7.039935800E-1,3.958406746E-1,2.287079573E0,2.333047152E0
7.061352830E-1,4.668537676E-1,2.323578596E0,2.382069111E0
7.082821130E-1,5.413793325E-1,2.355343580E0,2.426051378E0
7.104412310E-1,6.085745096E-1,2.390621185E0,2.460412502E0
7.125913580E-1,6.721044779E-1,2.426203966E0,2.483778000E0
7.147441170E-1,7.319692969E-1,2.464230299E0,2.501034975E0
7.168905100E-1,7.869471312E-1,2.510808945E0,2.506227493E0
7.190427430E-1,8.319984674E-1,2.561357975E0,2.501798630E0
7.211932140E-1,8.709411025E-1,2.616794109E0,2.485152483E0
7.233437270E-1,8.976664543E-1,2.663677931E0,2.458732605E0
7.254936590E-1,9.205739498E-1,2.700788021E0,2.419942617E0
7.276441510E-1,9.326385260E-1,2.722168207E0,2.370004416E0
7.297958840E-1,9.385944605E-1,2.726597071E0,2.306627274E0
7.319490830E-1,9.384417534E-1,2.713768959E0,2.228283644E0
7.340982940E-1,9.295842052E-1,2.685210943E0,2.140013695E0
7.362514510E-1,9.147707224E-1,2.643213987E0,2.040748119E0
7.383835810E-1,8.950703144E-1,2.586708784E0,1.931403160E0
7.405476440E-1,8.727737069E-1,2.520430088E0,1.812284470E0
7.426964170E-1,8.445212245E-1,2.441781044E0,1.686904430E0
7.448537450E-1,8.150469661E-1,2.347402334E0,1.552819490E0
7.470003310E-1,7.770205736E-1,2.239584684E0,1.418581843E0
7.491531530E-1,7.402159572E-1,2.118175268E0,1.281900764E0
7.513137460E-1,7.023423314E-1,1.983326793E0,1.149801135E0
7.534514210E-1,6.644686460E-1,1.837482691E0,1.016327024E0
7.555995420E-1,6.265950203E-1,1.675603390E0,8.912523985E-1
7.577468710E-1,5.887213945E-1,1.506240964E0,7.722864151E-1
7.599020330E-1,5.522221923E-1,1.320996046E0,6.603453159E-1
7.620538780E-1,5.181664228E-1,1.125824690E0,5.581781268E-1
7.642030380E-1,4.865541756E-1,9.170614481E-1,4.642575979E-1
7.663522380E-1,4.538728893E-1,7.032586336E-1,3.825543523E-1
7.685038600E-1,4.248567820E-1,4.821254015E-1,3.094032407E-1
7.706531920E-1,3.970624208E-1,2.620611787E-1,2.458732575E-1
7.727974580E-1,3.730859458E-1,4.550946131E-2,1.922698319E-1
7.749484290E-1,3.501785100E-1,-1.673770845E-1,1.484402567E-1
7.771020040E-1,3.335324228E-1,-3.607159257E-1,1.169806942E-1
7.792476130E-1,3.216205537E-1,-5.137376785E-1,9.086620808E-2
7.814087660E-1,3.144428730E-1,-6.189591885E-1,7.376197726E-2
7.835562870E-1,3.145956099E-1,-6.692028642E-1,6.475171447E-2
7.857090980E-1,3.194825351E-1,-6.826419234E-1,6.322455406E-2
7.878576270E-1,3.316998184E-1,-6.863071322E-1,6.933320314E-2
7.900106830E-1,3.451388776E-1,-7.096726894E-1,7.635815442E-2
7.921607790E-1,3.637702465E-1,-7.623597980E-1,8.903361112E-2
7.943111400E-1,3.834706545E-1,-8.422304392E-1,1.064432710E-1
7.964482640E-1,4.094324410E-1,-9.366091490E-1,1.259909570E-1
7.986134870E-1,4.366159439E-1,-1.032362223E0,1.479821056E-1
8.007698780E-1,4.686863720E-1,-1.125671983E0,1.713477075E-1
8.029155290E-1,4.995350540E-1,-1.213941932E0,1.933388561E-1
8.050636510E-1,5.303837657E-1,-1.297477722E0,2.118175179E-1
8.072097680E-1,5.624541640E-1,-1.372308731E0,2.304489166E-1
8.093635170E-1,5.931501389E-1,-1.436144233E0,2.478585690E-1
8.115139170E-1,6.201809645E-1,-1.491274834E0,2.666426897E-1
8.136659960E-1,6.461427212E-1,-1.542892933E0,2.868012190E-1
8.158156940E-1,6.695083380E-1,-1.598176241E0,3.080287874E-1
8.179658410E-1,6.867652535E-1,-1.664607763E0,3.304781020E-1
8.201175530E-1,7.005097270E-1,-1.739591479E0,3.564398587E-1
8.222733970E-1,7.081455588E-1,-1.823127270E0,3.846924007E-1
8.244169520E-1,7.060074806E-1,-1.905594110E0,4.155410826E-1
8.265663960E-1,6.953173876E-1,-1.983021259E0,4.453207552E-1
8.287167450E-1,6.808093190E-1,-2.055714369E0,4.751004577E-1
8.308695160E-1,6.530149579E-1,-2.117411613E0,5.062545538E-1
8.330194900E-1,6.238461137E-1,-2.165517330E0,5.387831330E-1
8.351668890E-1,5.922338367E-1,-2.201558352E0,5.702427030E-1
8.373068930E-1,5.581781268E-1,-2.225229263E0,6.030766964E-1
8.394708140E-1,5.241223574E-1,-2.235461473E0,6.372851729E-1
8.416211830E-1,4.900666475E-1,-2.234697819E0,6.728680730E-1
8.437732230E-1,4.570799172E-1,-2.215608358E0,7.073819637E-1
8.459180580E-1,4.253149331E-1,-2.189035654E0,7.432702780E-1
8.480608400E-1,3.996585906E-1,-2.151467323E0,7.767151594E-1
8.502233760E-1,3.727805018E-1,-2.111455679E0,8.151996732E-1
8.523738270E-1,3.459024429E-1,-2.076483727E0,8.596401215E-1
8.545267110E-1,3.203988075E-1,-2.047620296E0,9.124799371E-1
8.566757180E-1,2.936734557E-1,-2.030974150E0,9.640980959E-1
8.588287640E-1,2.643519342E-1,-2.027920008E0,1.015563488E0
8.609818090E-1,2.315179259E-1,-2.029752493E0,1.067028880E0
8.631348550E-1,2.023491114E-1,-2.035250187E0,1.114676356E0
8.652640190E-1,1.670716405E-1,-2.034486771E0,1.157589674E0
8.674131340E-1,1.305724531E-1,-2.030057907E0,1.196837783E0
8.695622090E-1,9.147707373E-2,-2.021964073E0,1.233642340E0
8.717113630E-1,4.764748737E-2,-2.017535210E0,1.264491081E0
8.738605180E-1,-2.443460980E-3,-2.022880316E0,1.292743564E0
8.760096720E-1,-6.093380973E-2,-2.040442705E0,1.314734697E0
8.781588270E-1,-1.269072592E-1,-2.062891960E0,1.333060622E0
8.803301650E-1,-2.037235647E-1,-2.096336842E0,1.346346974E0
8.824799460E-1,-2.843577862E-1,-2.132225037E0,1.355968118E0
8.846291430E-1,-3.660610020E-1,-2.170557022E0,1.368185401E0
8.867796170E-1,-4.489859641E-1,-2.207667112E0,1.381471753E0
8.889327860E-1,-5.283984542E-1,-2.239890099E0,1.398423314E0
8.910815990E-1,-6.027712822E-1,-2.269822598E0,1.419192672E0
8.932320000E-1,-6.698137522E-1,-2.298533201E0,1.447292447E0
8.953806800E-1,-7.295258045E-1,-2.328465700E0,1.483791709E0
8.975298200E-1,-7.819074988E-1,-2.359619617E0,1.525177836E0
8.996741070E-1,-8.268061280E-1,-2.394591808E0,1.573741555E0
9.018439070E-1,-8.657487631E-1,-2.441781044E0,1.628414035E0
9.039839320E-1,-8.972083330E-1,-2.493857384E0,1.688889742E0
9.061243630E-1,-9.237809777E-1,-2.554791212E0,1.756695747E0
9.082767470E-1,-9.428704977E-1,-2.616794109E0,1.826945186E0
9.104353970E-1,-9.572258592E-1,-2.683683634E0,1.901928902E0
9.125897960E-1,-9.616546035E-1,-2.744464874E0,1.979508877E0
9.147398200E-1,-9.613491893E-1,-2.801733494E0,2.058157682E0
9.168872200E-1,-9.512699246E-1,-2.856405973E0,2.138180971E0
9.190381100E-1,-9.373727441E-1,-2.912147284E0,2.215608358E0
9.211885810E-1,-9.150761366E-1,-2.965598106E0,2.290744781E0
9.233398470E-1,-8.889616728E-1,-3.020117760E0,2.363284826E0
9.254879170E-1,-8.568912148E-1,-3.070972204E0,2.433381796E0
9.276354800E-1,-8.211556077E-1,-3.113121986E0,2.497522593E0
9.297768260E-1,-7.841982841E-1,-3.150384903E0,2.559219837E0
9.319383970E-1,-7.437284589E-1,-3.185051441E0,2.612365246E0
9.340954000E-1,-7.018841505E-1,-3.219717979E0,2.659554482E0
9.362543750E-1,-6.589708924E-1,-3.259271622E0,2.696817398E0
9.383936480E-1,-6.122397184E-1,-3.299894094E0,2.729040384E0
9.405438540E-1,-5.656611919E-1,-3.346472502E0,2.755307674E0
9.426915200E-1,-5.178610086E-1,-3.390607595E0,2.769204855E0
9.448444730E-1,-4.676173329E-1,-3.438407660E0,2.776993513E0
9.469960740E-1,-4.161519408E-1,-3.476281404E0,2.778825998E0
9.491432710E-1,-3.648392558E-1,-3.509115458E0,2.770884752E0
9.512845360E-1,-3.097086847E-1,-3.540575027E0,2.755765915E0
9.534476940E-1,-2.583959997E-1,-3.562260628E0,2.734538317E0
9.555948890E-1,-2.021963894E-1,-3.571729183E0,2.707354784E0
9.577497160E-1,-1.498146951E-1,-3.579823017E0,2.672840834E0
9.598970130E-1,-9.743300825E-2,-3.563329697E0,2.632523775E0
9.620484720E-1,-5.864306539E-2,-3.478113890E0,2.584418058E0
9.641984460E-1,-3.848451003E-2,-3.296228886E0,2.532647371E0
9.663486730E-1,-3.680463135E-2,-3.028517246E0,2.478280306E0
9.684991450E-1,-4.993823543E-2,-2.737439871E0,2.420553446E0
9.706496160E-1,-5.803219974E-2,-2.497980595E0,2.366033792E0
9.728000880E-1,-5.726861581E-2,-2.336864948E0,2.311666727E0
9.749505590E-1,-4.184427112E-2,-2.235919476E0,2.268753529E0
9.771010310E-1,-1.771509275E-2,-2.155896187E0,2.230421782E0
9.792502970E-1,2.000583708E-2,-2.075720072E0,2.201863766E0
9.817476640E-1,6.856962293E-2,-1.993253350E0,2.180636168E0
9.834995620E-1,1.171334088E-1,-1.903608799E0,2.170557022E0
9.856057330E-1,1.658499092E-1,-1.806633949E0,2.167808056E0
9.877119050E-1,2.157881409E-1,-1.707215667E0,2.177276373E0
9.899172970E-1,2.608394623E-1,-1.617876649E0,2.191478968E0
9.921201780E-1,3.132211566E-1,-1.548085213E0,2.217746258E0
9.943169930E-1,3.633120954E-1,-1.508989930E0,2.251038313E0
9.964552070E-1,4.196644127E-1,-1.495703578E0,2.291202784E0
9.985931980E-1,4.784601927E-1,-1.512044191E0,2.340835571E0
1.000747901E0,5.435173512E-1,-1.554041147E0,2.399936914E0
1.002895870E0,6.099489331E-1,-1.612073421E0,2.463772297E0
1.005062933E0,6.811147332E-1,-1.682475567E0,2.533563614E0
1.007209591E0,7.548767328E-1,-1.761277199E0,2.605645657E0
1.009363491E0,8.335255980E-1,-1.841453314E0,2.677727699E0
1.011510504E0,9.085093141E-1,-1.922851086E0,2.748588085E0
1.013661098E0,9.894489646E-1,-2.001652718E0,2.818226814E0
1.015810492E0,1.069319606E0,-2.079232693E0,2.884200335E0
1.017963354E0,1.147968531E0,-2.156812429E0,2.947730303E0
1.020115381E0,1.225242972E0,-2.233170509E0,3.006525993E0
1.022267186E0,1.300226688E0,-2.310750484E0,3.060282230E0
1.024400610E0,1.372614264E0,-2.388177633E0,3.106707811E0
1.026562708E0,1.446223497E0,-2.468048334E0,3.149468422E0
1.028712876E0,1.512655020E0,-2.547919035E0,3.187494755E0
1.030866480E0,1.567785621E0,-2.612976074E0,3.221856117E0
1.033009821E0,1.596038222E0,-2.618168354E0,3.253468275E0
1.035172479E0,1.587486029E0,-2.542573929E0,3.294701815E0
1.037335688E0,1.553124905E0,-2.447584391E0,3.343570948E0
1.039465621E0,1.528843045E0,-2.448042393E0,3.396105289E0
1.041619795E0,1.526704907E0,-2.540588617E0,3.447570801E0
1.043780287E0,1.540602207E0,-2.655125856E0,3.507282734E0
1.045934553E0,1.555721045E0,-2.731636763E0,3.572340012E0
1.048084466E0,1.568243742E0,-2.763096333E0,3.652516127E0
1.050232007E0,1.574657917E0,-2.769968510E0,3.745367527E0
1.052384046E0,1.578628540E0,-2.772106409E0,3.838066339E0
1.054535435E0,1.576337814E0,-2.760805368E0,3.926183701E0
1.056683067E0,1.567938328E0,-2.724917173E0,4.013384819E0
1.058834109E0,1.549765110E0,-2.664441586E0,4.095851421E0
1.060981478E0,1.518000126E0,-2.584418058E0,4.173889637E0
1.063120679E0,1.483791709E0,-2.494468212E0,4.245819092E0
1.065290101E0,1.443321824E0,-2.388635874E0,4.309501648E0
1.067435203E0,1.398117781E0,-2.274098635E0,4.363563061E0
1.069587201E0,1.346499681E0,-2.150856495E0,4.407850742E0
1.071718040E0,1.286482215E0,-2.019062281E0,4.444961071E0
1.073870211E0,1.222646832E0,-1.882228494E0,4.468784809E0
1.076022167E0,1.151481032E0,-1.746616483E0,4.484056473E0
1.078180960E0,1.076650023E0,-1.615738630E0,4.490622997E0
1.080348236E0,9.943358898E-1,-1.489747643E0,4.485125542E0
1.082477296E0,9.121745229E-1,-1.372156024E0,4.473366261E0
1.084627585E0,8.263479471E-1,-1.263116598E0,4.452902317E0
1.086768738E0,7.403686643E-1,-1.157742381E0,4.423886299E0
1.088916932E0,6.557638645E-1,-1.058323979E0,4.388761520E0
1.091078909E0,5.758932233E-1,-9.576839805E-1,4.347375393E0
1.093229473E0,4.961752892E-1,-8.655960560E-1,4.297437191E0
1.095381500E0,4.236350358E-1,-7.782423496E-1,4.247498989E0
1.097526082E0,3.524692357E-1,-7.008151412E-1,4.197255135E0
1.099668019E0,2.898555696E-1,-6.317873597E-1,4.147011280E0
1.101831379E0,2.307543457E-1,-5.653557777E-1,4.097836971E0
1.103980936E0,1.803579628E-1,-5.074763298E-1,4.051105499E0
1.106134510E0,1.374446750E-1,-4.508185387E-1,4.006817818E0
1.108278879E0,1.029307917E-1,-3.966042697E-1,3.968333244E0
1.110433826E0,7.574728876E-2,-3.448334336E-1,3.933666706E0
1.112584085E0,5.726861581E-2,-2.895501256E-1,3.906330585E0
1.114736926E0,4.612032697E-2,-2.341141105E-1,3.884950161E0
1.116887511E0,4.337143153E-2,-1.824959964E-1,3.867235184E0
1.119022856E0,5.054909736E-2,-1.322523206E-1,3.859293938E0
1.121186531E0,6.398813426E-2,-8.185594529E-2,3.854865074E0
1.123335834E0,8.582656831E-2,-3.390302137E-2,3.852879763E0
1.125488532E0,1.125519201E-1,1.023199316E-2,3.855781317E0
1.127636156E0,1.430951804E-1,4.948008433E-2,3.863417149E0
1.129788134E0,1.785253733E-1,8.368854225E-2,3.874565601E0
1.131939532E0,2.176207453E-1,1.070541367E-1,3.890600681E0
1.134089729E0,2.628247738E-1,1.252273768E-1,3.917478800E0
1.136241685E0,3.068070710E-1,1.447750628E-1,3.946953058E0
1.138391487E0,3.558290005E-1,1.617265791E-1,3.976274490E0
1.140541541E0,4.071416855E-1,1.727221459E-1,4.001778126E0
1.142690569E0,4.596760869E-1,1.800525337E-1,4.015064716E0
1.144836543E0,5.109887719E-1,1.864666194E-1,4.005137920E0
1.146969732E0,5.658139586E-1,2.041817009E-1,3.963599205E0
1.149127723E0,6.241515875E-1,2.394591719E-1,3.882048607E0
1.151280167E0,6.847799420E-1,2.825251818E-1,3.755294085E0
1.153430588E0,7.428121567E-1,3.309362531E-1,3.587000608E0
1.155597875E0,8.020660877E-1,3.882048726E-1,3.387094975E0
1.157743587E0,8.623890281E-1,4.457789063E-1,3.160311460E0
1.159886825E0,9.262244105E-1,4.996877611E-1,2.922532082E0
1.162045853E0,9.889908433E-1,5.439754725E-1,2.677422285E0
1.164195715E0,1.051757216E0,5.708535910E-1,2.448958874E0
1.166348363E0,1.107498646E0,5.644394755E-1,2.252107382E0
1.168497004E0,1.152397275E0,5.145012736E-1,2.108401299E0
1.170647485E0,1.189049244E0,4.259257913E-1,2.030363321E0
1.172799870E0,1.220966935E0,3.074179292E-1,1.998292923E0
1.174954319E0,1.248303175E0,1.652390510E-1,2.011273861E0
1.177097976E0,1.270752430E0,6.719517522E-3,2.060753822E0
1.179250757E0,1.295950651E0,-1.557706445E-1,2.134516001E0
1.181395461E0,1.314887404E0,-3.170390725E-1,2.224160433E0
1.183535465E0,1.331380844E0,-4.711298347E-1,2.321287870E0
1.185684461E0,1.345430732E0,-6.130032539E-1,2.416124821E0
1.187836154E0,1.355815411E0,-7.461718917E-1,2.503783941E0
1.189995659E0,1.364978433E0,-8.645270467E-1,2.581821918E0
1.192159986E0,1.370323420E0,-9.669997096E-1,2.647795439E0
1.194314365E0,1.369407177E0,-1.059393048E0,2.701704264E0
1.196443230E0,1.368490815E0,-1.143081546E0,2.745991945E0
1.198604119E0,1.359022498E0,-1.219439745E0,2.779284239E0
1.200751660E0,1.347110629E0,-1.295797944E0,2.807842016E0
1.202908286E0,1.330311775E0,-1.374446750E0,2.832582235E0
1.205056143E0,1.310916781E0,-1.452026725E0,2.855031490E0
1.207205996E0,1.291674614E0,-1.534340739E0,2.874884605E0
1.209357587E0,1.272279620E0,-1.618029356E0,2.894737720E0
1.211506807E0,1.254259109E0,-1.704008579E0,2.915812492E0
1.213655204E0,1.239903688E0,-1.782657504E0,2.935818434E0
1.215798554E0,1.227839112E0,-1.861306429E0,2.954449654E0
1.217957540E0,1.219592452E0,-1.933846593E0,2.970790386E0
1.220101288E0,1.214858294E0,-2.000125647E0,2.985909224E0
1.222268606E0,1.212567568E0,-2.060295820E0,2.996294022E0
1.224409699E0,1.216385365E0,-2.114357233E0,3.000570059E0
1.226562734E0,1.220203280E0,-2.160783052E0,2.998737574E0
1.228709473E0,1.228908181E0,-2.201100111E0,2.989727259E0
1.230861521E0,1.238682032E0,-2.237752199E0,2.978273392E0
1.233012482E0,1.255786180E0,-2.268142700E0,2.958267689E0
1.235165364E0,1.272890449E0,-2.297311544E0,2.935971022E0
1.237320281E0,1.292438149E0,-2.324036837E0,2.908634901E0
1.239463470E0,1.316872716E0,-2.349387646E0,2.879007816E0
1.241613982E0,1.340085626E0,-2.374585867E0,2.843272209E0
1.243763274E0,1.366811037E0,-2.396271706E0,2.803718805E0
1.245913542E0,1.392467380E0,-2.419026375E0,2.758209229E0
1.248065062E0,1.422857881E0,-2.439184904E0,2.706591129E0
1.250214252E0,1.452179432E0,-2.459496260E0,2.652529716E0
1.252360187E0,1.481348276E0,-2.472324371E0,2.594802856E0
1.254516915E0,1.510517001E0,-2.480112791E0,2.532341957E0
1.256666318E0,1.540907621E0,-2.484389067E0,2.467437506E0
1.258819852E0,1.570076346E0,-2.488512278E0,2.397646189E0
1.260968402E0,1.597870708E0,-2.491413832E0,2.326632977E0
1.263119616E0,1.628261328E0,-2.493093729E0,2.258216143E0
1.265268155E0,1.654986620E0,-2.498438835E0,2.187202930E0
1.267409492E0,1.682933807E0,-2.502562284E0,2.116189957E0
1.269572304E0,1.707062960E0,-2.501798630E0,2.042733431E0
1.271727749E0,1.733788252E0,-2.501034975E0,1.969429493E0
1.273874030E0,1.753183246E0,-2.497828007E0,1.898569226E0
1.276022437E0,1.773647189E0,-2.494621038E0,1.827708840E0
1.278172411E0,1.794263959E0,-2.490192175E0,1.756848454E0
1.280323625E0,1.809841037E0,-2.475989580E0,1.684766293E0
1.282473415E0,1.830304980E0,-2.454303741E0,1.610546231E0
1.284620449E0,1.848478198E0,-2.424066067E0,1.537547827E0
1.286759049E0,1.865277052E0,-2.386497736E0,1.462105989E0
1.288914283E0,1.884519339E0,-2.344195366E0,1.389260292E0
1.291075485E0,1.904830575E0,-2.295631647E0,1.317636371E0
1.293229081E0,1.924072862E0,-2.242028236E0,1.244943380E0
1.295378585E0,1.943315029E0,-2.183690548E0,1.174693823E0
1.297525732E0,1.965000749E0,-2.122909546E0,1.106887817E0
1.299677536E0,1.984090328E0,-2.058463097E0,1.037860036E0
1.301828221E0,2.004554272E0,-1.990351677E0,9.702067375E-1
1.303979101E0,2.026240110E0,-1.919796705E0,9.037751555E-1
1.306127537E0,2.050216436E0,-1.844354868E0,8.397870064E-1
1.308278620E0,2.071902275E0,-1.766469598E0,7.721336484E-1
1.310430179E0,2.094656944E0,-1.683544636E0,7.082982659E-1
1.312581872E0,2.115120888E0,-1.600772381E0,6.432411075E-1
1.314729536E0,2.136653900E0,-1.515556693E0,5.781839490E-1
1.316875796E0,2.157117844E0,-1.426675797E0,5.131267905E-1
1.319034620E0,2.177429199E0,-1.333976984E0,4.492913783E-1
1.321182406E0,2.194075346E0,-1.238987446E0,3.880521357E-1
1.323334151E0,2.209652424E0,-1.143997908E0,3.268128932E-1
1.325481071E0,2.220189810E0,-1.051451802E0,2.704605758E-1
1.327632907E0,2.225992918E0,-9.564622641E-1,2.128865421E-1
1.329785718E0,2.231643438E0,-8.665123582E-1,1.563815027E-1
1.331936312E0,2.231338024E0,-7.741189599E-1,1.036943719E-1
1.334085432E0,2.229658127E0,-6.815729141E-1,4.978551716E-2
1.336234530E0,2.225687504E0,-5.928447247E-1,1.985311974E-3
1.338386334E0,2.221564293E0,-5.042692423E-1,-4.581489414E-2
1.340536969E0,2.213928461E0,-4.155410826E-1,-8.994990587E-2
1.342688071E0,2.205070734E0,-3.269656301E-1,-1.304197311E-1
1.344839885E0,2.193769693E0,-2.408336252E-1,-1.672243625E-1
1.346992036E0,2.182468891E0,-1.559233516E-1,-2.029599845E-1
1.349136262E0,2.167502642E0,-7.483099401E-2,-2.348776907E-1
1.351273734E0,2.150092840E0,9.926560335E-3,-2.645046413E-1
1.353417736E0,2.132683277E0,8.857546002E-2,-2.915354371E-1
1.355577810E0,2.112830162E0,1.647808999E-1,-3.187189400E-1
1.357742554E0,2.090533495E0,2.360994220E-1,-3.422372639E-1
1.359896362E0,2.065946341E0,3.084869385E-1,-3.633120954E-1
1.362045288E0,2.043649673E0,3.772092760E-1,-3.819434941E-1
1.364193451E0,2.015397072E0,4.447098970E-1,-4.007275999E-1
1.366341583E0,1.989435434E0,5.024366379E-1,-4.170682430E-1
1.368493632E0,1.963626385E0,5.613851547E-1,-4.309654236E-1
1.370643900E0,1.932930350E0,6.177374721E-1,-4.448626041E-1
1.372795949E0,1.903456092E0,6.679811478E-1,-4.550946057E-1
1.374947518E0,1.872760177E0,7.170031071E-1,-4.630358517E-1
1.377094847E0,1.839620709E0,7.635815740E-1,-4.720461071E-1
1.379246856E0,1.807703018E0,8.064948320E-1,-4.763221741E-1
1.381397296E0,1.775785327E0,8.468119502E-1,-4.807509482E-1
1.383548664E0,1.742798567E0,8.822421432E-1,-4.838052690E-1
1.385694761E0,1.709659100E0,9.176723361E-1,-4.857905805E-1
1.387839934E0,1.675297976E0,9.469938278E-1,-4.853324294E-1
1.389987078E0,1.642311215E0,9.750936627E-1,-4.836525619E-1
1.392152982E0,1.606728315E0,9.958630800E-1,-4.807509482E-1
1.394315570E0,1.570076346E0,1.017701507E0,-4.755585790E-1
1.396452410E0,1.535867929E0,1.033431292E0,-4.703662395E-1
1.398601530E0,1.499216080E0,1.046870351E0,-4.651738703E-1
1.400747210E0,1.462564111E0,1.056491494E0,-4.575380683E-1
1.402901741E0,1.430799127E0,1.063669086E0,-4.500549734E-1
1.405052141E0,1.395368934E0,1.068403363E0,-4.425718784E-1
1.407200975E0,1.362382174E0,1.072984815E0,-4.324925840E-1
1.409352872E0,1.329395533E0,1.071610332E0,-4.239404798E-1
1.411500292E0,1.298852205E0,1.070235968E0,-4.152356386E-1
1.413639798E0,1.271974206E0,1.063974500E0,-4.042400718E-1
1.415794644E0,1.242652655E0,1.056338668E0,-3.944662213E-1
1.417958635E0,1.217149019E0,1.047633886E0,-3.834706545E-1
1.420109543E0,1.192714334E0,1.033889413E0,-3.724750876E-1
1.422263454E0,1.168279767E0,1.017854214E0,-3.591887653E-1
1.424405137E0,1.147663116E0,1.001666307E0,-3.495676219E-1
1.426552393E0,1.126893640E0,9.831876159E-1,-3.373503387E-1
1.428690262E0,1.109942198E0,9.621127844E-1,-3.254384696E-1
1.430845789E0,1.092837930E0,9.411906004E-1,-3.121521473E-1
1.433007879E0,1.078329921E0,9.164505601E-1,-3.013092875E-1
1.435152084E0,1.066112518E0,8.918632865E-1,-2.930625975E-1
1.437323583E0,1.051604509E0,8.672759533E-1,-2.834414840E-1
1.439459457E0,1.043205142E0,8.425359130E-1,-2.739730477E-1
1.441613824E0,1.035874724E0,8.167268038E-1,-2.645046413E-1
1.443758010E0,1.027475357E0,7.921395302E-1,-2.561052442E-1
1.445909814E0,1.025031924E0,7.663304210E-1,-2.454151064E-1
1.448058161E0,1.022741079E0,7.429648638E-1,-2.383901626E-1
1.450202935E0,1.020297647E0,7.171558142E-1,-2.313652188E-1
1.452372297E0,1.020450354E0,6.913467646E-1,-2.267837226E-1
1.454511875E0,1.022893906E0,6.667594314E-1,-2.185370475E-1
1.456665643E0,1.024268270E0,6.372851729E-1,-2.127338201E-1
1.458812544E0,1.029307961E0,6.102544069E-1,-2.081523389E-1
1.460966769E0,1.031751394E0,5.807801485E-1,-2.011273801E-1
1.463116488E0,1.035569310E0,5.513058901E-1,-1.953241676E-1
1.465268323E0,1.040456176E0,5.218316317E-1,-1.908953935E-1
1.467415774E0,1.049161077E0,4.937318265E-1,-1.850921661E-1
1.469566958E0,1.055269718E0,4.630358517E-1,-1.806633919E-1
1.471716942E0,1.063974500E0,4.372268021E-1,-1.748601794E-1
1.473867841E0,1.075122833E0,4.065308273E-1,-1.690569520E-1
1.476017040E0,1.082453251E0,3.772092760E-1,-1.646281779E-1
1.478169720E0,1.094823241E0,3.465133011E-1,-1.588249654E-1
1.480322714E0,1.105818868E0,3.170390725E-1,-1.543961912E-1
1.482471600E0,1.118188858E0,2.875648141E-1,-1.498146951E-1
1.484621156E0,1.133002281E0,2.570215464E-1,-1.453859210E-1
1.486764253E0,1.142776132E0,2.263255715E-1,-1.395827085E-1
1.488903352E0,1.157589674E0,1.919644028E-1,-1.363756657E-1
1.491071717E0,1.169806957E0,1.638645977E-1,-1.319468915E-1
1.493222373E0,1.183398724E0,1.331686229E-1,-1.273654103E-1
1.495375672E0,1.195768714E0,1.000291854E-1,-1.229366288E-1
1.497522116E0,1.210429430E0,6.826419383E-2,-1.172861308E-1
1.499674093E0,1.224021196E0,3.634648025E-2,-1.140790880E-1
1.501825642E0,1.238834739E0,3.207042580E-3,-1.070541367E-1
1.503974213E0,1.252273798E0,-2.733621933E-2,-1.050688252E-1
1.506124776E0,1.265865445E0,-5.436700583E-2,-9.804387391E-2
1.508278299E0,1.279304504E0,-8.261952549E-2,-9.117163718E-2
1.510426594E0,1.291674614E0,-1.094975919E-1,-8.414668590E-2
1.512577076E0,1.304044604E0,-1.353066564E-1,-7.712173462E-2
1.514723529E0,1.316261888E0,-1.574505121E-1,-6.887505949E-2
1.516865670E0,1.327410221E0,-1.808161139E-1,-6.062837690E-2
1.519029622E0,1.338405728E0,-2.017382532E-1,-5.115996301E-2
1.521178811E0,1.350775719E0,-2.237294018E-1,-3.924809024E-2
1.523332101E0,1.358106136E0,-2.385428846E-1,-3.100141138E-2
1.525478025E0,1.369254470E0,-2.594650090E-1,-1.893682219E-2
1.527629209E0,1.379028320E0,-2.803871334E-1,-7.024950348E-3
1.529780942E0,1.386511445E0,-2.964223623E-1,3.665191587E-3
1.531932197E0,1.395063519E0,-3.149010241E-1,1.695151068E-2
1.534082008E0,1.402546644E0,-3.321579695E-1,3.130684420E-2
1.536232205E0,1.410029650E0,-3.481931984E-1,4.337143153E-2
1.538379585E0,1.416138411E0,-3.654501438E-1,5.772676691E-2
1.540520484E0,1.422399759E0,-3.865249753E-1,7.223481685E-2
1.542684160E0,1.427286625E0,-4.025602043E-1,8.659014851E-2
1.544835059E0,1.431104541E0,-4.210388660E-1,1.035416573E-1
1.546990292E0,1.436144233E0,-4.395175576E-1,1.191187203E-1
1.549133583E0,1.438587666E0,-4.569272101E-1,1.336267740E-1
1.551275997E0,1.442405581E0,-4.741841555E-1,1.504255682E-1
1.553424475E0,1.441183805E0,-4.902193546E-1,1.673770845E-1
1.555585200E0,1.443780065E0,-5.088507533E-1,1.831068546E-1
1.557737993E0,1.446376204E0,-5.261076689E-1,1.999056488E-1
1.559890905E0,1.446376204E0,-5.433646441E-1,2.156354338E-1
1.562038621E0,1.447750688E0,-5.583308339E-1,2.301434875E-1
1.564188726E0,1.446528912E0,-5.743660331E-1,2.446515262E-1
1.566338017E0,1.445459843E0,-5.916230083E-1,2.614503205E-1
1.568490250E0,1.444238186E0,-6.078109145E-1,2.747366428E-1
1.570641596E0,1.443169117E0,-6.238461137E-1,2.880229652E-1
1.572791448E0,1.440725684E0,-6.423248053E-1,3.025310040E-1
1.574942357E0,1.438434958E0,-6.608034968E-1,3.132211566E-1
1.577090539E0,1.435991526E0,-6.768386960E-1,3.240640163E-1
1.579243351E0,1.430035591E0,-6.940956116E-1,3.349068761E-1
1.581392795E0,1.425148606E0,-7.113525867E-1,3.433062732E-1
1.583544784E0,1.421636105E0,-7.322747111E-1,3.515529633E-1
1.585692600E0,1.415527463E0,-7.495316267E-1,3.587306142E-1
1.587840316E0,1.408349872E0,-7.704538107E-1,3.646865487E-1
1.589982303E0,1.402241111E0,-7.889324427E-1,3.730859458E-1
1.592142683E0,1.394910812E0,-8.122980595E-1,3.776674271E-1
1.594283979E0,1.386511445E0,-8.332201838E-1,3.836233616E-1
1.596446679E0,1.377959251E0,-8.541423082E-1,3.894265890E-1
1.598587538E0,1.367116451E0,-8.775079250E-1,3.966042697E-1
1.600737317E0,1.358564258E0,-9.020952582E-1,4.024074674E-1
1.602898501E0,1.346499681E0,-9.280570149E-1,4.095851481E-1
1.605051403E0,1.334282398E0,-9.550877810E-1,4.166100919E-1
1.607200706E0,1.322217822E0,-9.845620394E-1,4.236350358E-1
1.609349357E0,1.305113554E0,-1.015410781E0,4.306600094E-1
1.611499300E0,1.289383769E0,-1.047328472E0,4.401284158E-1
1.613649040E0,1.271210551E0,-1.080620646E0,4.483750761E-1
1.615796530E0,1.251662850E0,-1.114981771E0,4.566217661E-1
1.617939403E0,1.234711409E0,-1.149495721E0,4.660901725E-1
1.620104330E0,1.214094639E0,-1.184009552E0,4.743368626E-1
1.622257478E0,1.193325281E0,-1.218370676E0,4.838052690E-1
1.624405590E0,1.170265079E0,-1.250441194E0,4.920519590E-1
1.626551819E0,1.148426652E0,-1.283733368E0,5.015203953E-1
1.628702769E0,1.123992085E0,-1.315651059E0,5.109887719E-1
1.630855906E0,1.098488450E0,-1.348943233E0,5.216789246E-1
1.633009308E0,1.072984815E0,-1.381013632E0,5.325217843E-1
1.635148315E0,1.048550248E0,-1.411862254E0,5.444336534E-1
1.637320363E0,1.020603061E0,-1.441489220E0,5.575672388E-1
1.639455658E0,9.889908433E-1,-1.476003170E0,5.708535910E-1
1.641609537E0,9.586002827E-1,-1.508073568E0,5.852088928E-1
1.643753418E0,9.243918061E-1,-1.541518450E0,6.020076871E-1
1.645906483E0,8.903360963E-1,-1.578475833E0,6.200281978E-1
1.648058999E0,8.562803864E-1,-1.613142371E0,6.394231915E-1
1.650205046E0,8.185594082E-1,-1.647809029E0,6.611089110E-1
1.652345153E0,7.820602059E-1,-1.683697343E0,6.815729141E-1
1.654509755E0,7.418958545E-1,-1.718211174E0,7.034113407E-1
1.656660033E0,7.029531598E-1,-1.752877831E0,7.238753438E-1
1.658814910E0,6.638578176E-1,-1.783879280E0,7.469354868E-1
1.660962756E0,6.261368990E-1,-1.817324162E0,7.710646391E-1
1.663112781E0,5.859724879E-1,-1.849547267E0,7.916813493E-1
1.665264056E0,5.482515693E-1,-1.880548716E0,8.121453524E-1
1.667412280E0,5.080871582E-1,-1.910175562E0,8.352054954E-1
1.669563311E0,4.714352489E-1,-1.937511802E0,8.570439219E-1
1.671713477E0,4.337143302E-1,-1.968513250E0,8.787296414E-1
1.673863747E0,3.935499489E-1,-1.998292923E0,9.005680680E-1
1.676013475E0,3.546072841E-1,-2.028072596E0,9.248499870E-1
1.678164965E0,3.168863356E-1,-2.058921337E0,9.479101300E-1
1.680314571E0,2.779437006E-1,-2.091297150E0,9.744827747E-1
1.682466600E0,2.402227521E-1,-2.123520374E0,1.001208186E0
1.684616422E0,1.976149082E-1,-2.155743361E0,1.031445980E0
1.686763363E0,1.562287807E-1,-2.190562725E0,1.061836481E0
1.688906277E0,1.160643995E-1,-2.225229263E0,1.096961260E0
1.691069626E0,7.345654815E-2,-2.258826971E0,1.132086039E0
1.693215836E0,3.084869497E-2,-2.296089649E0,1.169806957E0
1.695356206E0,-1.175915636E-2,-2.328465700E0,1.212262034E0
1.697506618E0,-5.421429127E-2,-2.362215996E0,1.254869938E0
1.699670426E0,-9.926560521E-2,-2.393369913E0,1.299768567E0
1.701823898E0,-1.418734491E-1,-2.424524069E0,1.347263336E0
1.703973333E0,-1.867720485E-1,-2.459496260E0,1.395979762E0
1.706121211E0,-2.293798923E-1,-2.495689869E0,1.446987033E0
1.708275681E0,-2.730567753E-1,-2.529440165E0,1.497994304E0
1.710422897E0,-3.168863356E-1,-2.560747147E0,1.550375938E0
1.712573612E0,-3.582724631E-1,-2.585792542E0,1.599092484E0
1.714719791E0,-3.996585906E-1,-2.605951071E0,1.649183393E0
1.716861739E0,-4.398229718E-1,-2.620153666E0,1.697899938E0
1.719025009E0,-4.775438905E-1,-2.631760120E0,1.745547414E0
1.721175276E0,-5.128213763E-1,-2.632218361E0,1.790904164E0
1.723328749E0,-5.493205786E-1,-2.626720667E0,1.835039139E0
1.725475488E0,-5.823072791E-1,-2.613739729E0,1.878105164E0
1.727625420E0,-6.126978397E-1,-2.594650030E0,1.921171188E0
1.729777336E0,-6.456845403E-1,-2.570520878E0,1.961946487E0
1.731927880E0,-6.725626588E-1,-2.540435791E0,2.001499891E0
1.734078271E0,-6.980662346E-1,-2.507754564E0,2.041053534E0
1.736227471E0,-7.212791443E-1,-2.468964577E0,2.078163624E0
1.738379275E0,-7.420485616E-1,-2.430174589E0,2.115273714E0
1.740529858E0,-7.603744864E-1,-2.386497736E0,2.151314735E0
1.742681663E0,-7.776314616E-1,-2.336559534E0,2.183690548E0
1.744831280E0,-7.959573865E-1,-2.285552263E0,2.217288017E0
1.746981071E0,-8.081747293E-1,-2.228283644E0,2.248594999E0
1.749119803E0,-8.217664957E-1,-2.164906502E0,2.277458429E0
1.751267996E0,-8.327620625E-1,-2.097711325E0,2.306321621E0
1.753421073E0,-8.439103365E-1,-2.022116661E0,2.332894325E0
1.755566977E0,-8.513934612E-1,-1.943925977E0,2.357023478E0
1.757737336E0,-8.613200188E-1,-1.860848308E0,2.378709316E0
1.759887410E0,-8.688030839E-1,-1.772730947E0,2.400547743E0
1.762039531E0,-8.799513578E-1,-1.678657651E0,2.418720961E0
1.764185426E0,-8.898779750E-1,-1.580766559E0,2.438268661E0
1.766334107E0,-9.046914577E-1,-1.479210138E0,2.452776670E0
1.768485149E0,-9.172141552E-1,-1.370323420E0,2.466368437E0
1.770632293E0,-9.320276380E-1,-1.261436701E0,2.478585720E0
1.772787862E0,-9.494373202E-1,-1.148884773E0,2.490955830E0
1.774938079E0,-9.680687189E-1,-1.032667756E0,2.502104044E0
1.777089122E0,-9.877691269E-1,-9.201157689E-1,2.515695810E0
1.779239054E0,-1.011287451E0,-8.086328506E-1,2.526844025E0
1.781389759E0,-1.033583999E0,-6.973026991E-1,2.540435791E0
1.783541931E0,-1.056949615E0,-5.871942043E-1,2.552653074E0
1.785688434E0,-1.081689596E0,-4.809036553E-1,2.565023184E0
1.787836333E0,-1.109942198E0,-3.720169365E-1,2.577393293E0
1.789978188E0,-1.133460522E0,-2.643519342E-1,2.589610577E0
1.792139230E0,-1.156826019E0,-1.579086632E-1,2.600758791E0
1.794280853E0,-1.185231328E0,-5.268712714E-2,2.614197731E0
1.796439309E0,-1.211040378E0,5.253441259E-2,2.626567841E0
1.798572223E0,-1.237002134E0,1.540907621E-1,2.638785124E0
1.800746538E0,-1.262811184E0,2.556470931E-1,2.651002407E0
1.802895119E0,-1.288620234E0,3.497203588E-1,2.666884899E0
1.805051968E0,-1.314581990E0,4.401284158E-1,2.680171251E0
1.807193835E0,-1.340391040E0,5.221370459E-1,2.693457603E0
1.809346210E0,-1.368643522E0,5.966626406E-1,2.709034681E0
1.811496620E0,-1.393230915E0,6.638578176E-1,2.725680828E0
1.813641710E0,-1.417665482E0,7.247915864E-1,2.741257906E0
1.815776893E0,-1.442252874E0,7.773260474E-1,2.757751226E0
1.817950609E0,-1.466687441E0,8.223773241E-1,2.777909756E0
1.820098435E0,-1.486387849E0,8.588765264E-1,2.796693802E0
1.822254502E0,-1.505935550E0,8.856018782E-1,2.816699743E0
1.824398251E0,-1.520443559E0,9.025533795E-1,2.840065241E0
1.826549750E0,-1.537547827E0,9.156870246E-1,2.862209082E0
1.828701178E0,-1.549765110E0,9.190467596E-1,2.888018131E0
1.830850866E0,-1.558164477E0,9.152288437E-1,2.911231041E0
1.833001918E0,-1.565494895E0,9.063712955E-1,2.935513020E0
1.835155208E0,-1.569007397E0,8.877398968E-1,2.961016655E0
1.837320165E0,-1.572519898E0,8.642216325E-1,2.985145807E0
1.839452438E0,-1.571145415E0,8.321511745E-1,3.008053064E0
1.841603215E0,-1.567327499E0,7.976372838E-1,3.028364420E0
1.843748997E0,-1.562287807E0,7.557930350E-1,3.046232224E0
1.845904067E0,-1.556026459E0,7.115052938E-1,3.060282230E0
1.848055720E0,-1.544878244E0,6.623306274E-1,3.073110342E0
1.850200779E0,-1.532508135E0,6.108652353E-1,3.082273245E0
1.852338353E0,-1.517694712E0,5.581781268E-1,3.086549282E0
1.854506332E0,-1.499216080E0,5.091561675E-1,3.085938454E0
1.856657678E0,-1.480890036E0,4.615086913E-1,3.080440760E0
1.858812148E0,-1.457524419E0,4.101960063E-1,3.071125031E0
1.860959954E0,-1.433089852E0,3.663664162E-1,3.056006193E0
1.863110019E0,-1.404837370E0,3.225368559E-1,3.037069321E0
1.865260888E0,-1.373072386E0,2.799290121E-1,3.013245583E0
1.867407423E0,-1.341307402E0,2.385428846E-1,2.986978292E0
1.869559259E0,-1.309389710E0,1.997529417E-1,2.958267689E0
1.871709363E0,-1.271515965E0,1.597412676E-1,2.927113533E0
1.873860507E0,-1.234864116E0,1.233947799E-1,2.896112204E0
1.876009910E0,-1.196990490E0,8.704829961E-2,2.863736153E0
1.878162173E0,-1.159116745E0,5.192354694E-2,2.829069614E0
1.880313774E0,-1.122464895E0,1.313360315E-2,2.795472145E0
1.882462913E0,-1.084591269E0,-2.199114859E-2,2.760805368E0
1.884612968E0,-1.047939301E0,-6.078109145E-2,2.725986242E0
1.886763470E0,-1.014952660E0,-9.957103431E-2,2.693610191E0
1.888919700E0,-9.819658995E-1,-1.408044398E-1,2.662456274E0
1.891064607E0,-9.502009153E-1,-1.820378453E-1,2.629011393E0
1.893215344E0,-9.233227968E-1,-2.257147133E-1,2.599078894E0
1.895364105E0,-8.950703144E-1,-2.719877362E-1,2.569146395E0
1.897516032E0,-8.718574047E-1,-3.170390725E-1,2.541657686E0
1.899666657E0,-8.523097038E-1,-3.680463135E-1,2.512946844E0
1.901817139E0,-8.326093554E-1,-4.204280078E-1,2.486526966E0
1.903967540E0,-8.179485798E-1,-4.778493345E-1,2.461481571E0
1.906117828E0,-7.994698882E-1,-5.351179838E-1,2.439948559E0
1.908272868E0,-7.872526050E-1,-5.986479521E-1,2.418415546E0
1.910419016E0,-7.736608386E-1,-6.621779203E-1,2.400547743E0
1.912570292E0,-7.625125647E-1,-7.293730974E-1,2.381458044E0
1.914719959E0,-7.515169382E-1,-7.990117669E-1,2.367102861E0
1.916869476E0,-7.391469479E-1,-8.686503768E-1,2.351678371E0
1.919017872E0,-7.279986739E-1,-9.396634698E-1,2.337323189E0
1.921158640E0,-7.156286240E-1,-1.010523796E0,2.324342251E0
1.923323048E0,-7.032586336E-1,-1.081384182E0,2.312430382E0
1.925467985E0,-6.908885837E-1,-1.151175499E0,2.299449444E0
1.927610340E0,-6.785185933E-1,-1.220814228E0,2.287537575E0
1.929760832E0,-6.661485434E-1,-1.289231062E0,2.274556637E0
1.931925536E0,-6.513350606E-1,-1.355357289E0,2.260354042E0
1.934077553E0,-6.366742849E-1,-1.416443825E0,2.248594999E0
1.936227099E0,-6.255260110E-1,-1.476308584E0,2.233170509E0
1.938375445E0,-6.119342446E-1,-1.533729911E0,2.216524601E0
1.940526018E0,-5.972734690E-1,-1.586264372E0,2.201252937E0
1.942676867E0,-5.824599862E-1,-1.633759141E0,2.184759617E0
1.944827023E0,-5.677992702E-1,-1.674076200E0,2.167197227E0
1.946978208E0,-5.531384945E-1,-1.710575461E0,2.147191286E0
1.949129310E0,-5.371032953E-1,-1.745852828E0,2.129628897E0
1.951275519E0,-5.224425197E-1,-1.772578239E0,2.109775782E0
1.953415626E0,-5.102251768E-1,-1.795638442E0,2.085035801E0
1.955577755E0,-4.993823469E-1,-1.811215401E0,2.061517477E0
1.957728756E0,-4.859432876E-1,-1.824501753E0,2.035708427E0
1.959883775E0,-4.749477208E-1,-1.831526756E0,2.007455826E0
1.962031521E0,-4.665483236E-1,-1.833664775E0,1.978134394E0
1.964181393E0,-4.592179358E-1,-1.829694152E0,1.946369410E0
1.966331854E0,-4.508185387E-1,-1.820683837E0,1.909870148E0
1.968476975E0,-4.448626041E-1,-1.806786656E0,1.873371005E0
1.970611038E0,-4.425718784E-1,-1.790446043E0,1.831984878E0
1.972783889E0,-4.402811229E-1,-1.766775012E0,1.789529681E0
1.974934473E0,-4.393648207E-1,-1.736995339E0,1.745852828E0
1.977088790E0,-4.395175576E-1,-1.705841184E0,1.699732542E0
1.979235103E0,-4.434881806E-1,-1.673465371E0,1.652543187E0
1.981385930E0,-4.473060668E-1,-1.633911848E0,1.604132175E0
1.983537907E0,-4.573853612E-1,-1.595427275E0,1.553277612E0
1.985680160E0,-4.673119187E-1,-1.553277612E0,1.500132322E0
1.987813776E0,-4.786129296E-1,-1.508531690E0,1.444390893E0
1.989974756E0,-4.899139404E-1,-1.462716818E0,1.388802171E0
1.992135715E0,-5.036584139E-1,-1.414458513E0,1.329548240E0
1.994282424E0,-5.198463202E-1,-1.362382174E0,1.269225240E0
1.996440850E0,-5.384777188E-1,-1.307862520E0,1.206306100E0
1.998589745E0,-5.583308339E-1,-1.252273798E0,1.144761443E0
2.000743767E0,-5.807801485E-1,-1.195310593E0,1.078329921E0
2.002892509E0,-6.042984724E-1,-1.135903955E0,1.013120055E0
2.005047050E0,-6.302602291E-1,-1.076497316E0,9.479101300E-1
2.007190036E0,-6.574437022E-1,-1.015868902E0,8.816312551E-1
2.009341963E0,-6.872233748E-1,-9.552405477E-1,8.164213896E-1
2.011490898E0,-7.156286240E-1,-8.921687007E-1,7.525860071E-1
2.013640169E0,-7.476990819E-1,-8.292495608E-1,6.873761415E-1
2.015778942E0,-7.823656797E-1,-7.661777139E-1,6.235406995E-1
2.017934786E0,-8.181012869E-1,-7.006624341E-1,5.621487498E-1
2.020094697E0,-8.575021029E-1,-6.365215778E-1,5.032002330E-1
2.022249096E0,-8.944594264E-1,-5.711590052E-1,4.479169548E-1
2.024397605E0,-9.340129495E-1,-5.057964325E-1,3.914119005E-1
2.026544791E0,-9.746354818E-1,-4.404338300E-1,3.384193480E-1
2.028696382E0,-1.017701507E0,-3.762930036E-1,2.904664278E-1
2.030847809E0,-1.061989188E0,-3.086396754E-1,2.426662147E-1
2.033000794E0,-1.106276989E0,-2.457205504E-1,1.983784884E-1
2.035153728E0,-1.150564671E0,-1.817324162E-1,1.576032341E-1
2.037314617E0,-1.193630695E0,-1.203404516E-1,1.182024255E-1
2.039426311E0,-1.240361929E0,-5.757404864E-2,8.368854225E-2
2.041599405E0,-1.284496903E0,1.527163084E-3,5.039638281E-2
2.043744161E0,-1.327562928E0,6.169738993E-2,2.183843218E-2
2.045902944E0,-1.372919679E0,1.145372316E-1,-5.497787148E-3
2.048044241E0,-1.415985584E0,1.696678251E-1,-2.779436857E-2
2.050198750E0,-1.457677245E0,2.225076705E-1,-4.780020565E-2
2.052335245E0,-1.499368787E0,2.739730477E-1,-6.658431143E-2
2.054484212E0,-1.539838552E0,3.193297982E-1,-8.063421398E-2
2.056651711E0,-1.576643229E0,3.622430861E-1,-9.101892263E-2
2.058807697E0,-1.615891337E0,4.039346576E-1,-9.896016866E-2
2.060963204E0,-1.651474237E0,4.381431043E-1,-1.044579595E-1
2.063105284E0,-1.687057137E0,4.711298347E-1,-1.076650023E-1
2.065257108E0,-1.718822122E0,4.992296100E-1,-1.084285825E-1
2.067403319E0,-1.753183246E0,5.236642361E-1,-1.055269688E-1
2.069557117E0,-1.783726573E0,5.442809463E-1,-9.911288321E-2
2.071705716E0,-1.811826348E0,5.626068711E-1,-9.269879758E-2
2.073856891E0,-1.842369556E0,5.746715069E-1,-8.139779419E-2
2.076005938E0,-1.868025899E0,5.830708742E-1,-7.024950534E-2
2.078159645E0,-1.892460585E0,5.937610269E-1,-5.421429127E-2
2.080314185E0,-1.913229942E0,5.960517526E-1,-3.817907721E-2
2.082459195E0,-1.933999419E0,5.957463384E-1,-1.985312067E-2
2.084609464E0,-1.950950861E0,5.968153477E-1,-3.817907767E-3
2.086755378E0,-1.969276786E0,5.904012322E-1,1.695151068E-2
2.088898618E0,-1.982563138E0,5.853615999E-1,3.649919853E-2
2.091061113E0,-1.989893556E0,5.765040517E-1,5.589416996E-2
2.093211137E0,-1.997071147E0,5.665774941E-1,7.544185966E-2
2.095363206E0,-2.003179789E0,5.552765131E-1,9.361509979E-2
2.097511155E0,-2.004248857E0,5.415320396E-1,1.130100712E-1
2.099663143E0,-2.003027201E0,5.242751241E-1,1.285871267E-1
2.101815293E0,-2.001652718E0,5.094616413E-1,1.467603743E-1
2.103966070E0,-1.991878867E0,4.922046661E-1,1.612684280E-1
2.106115423E0,-1.983173966E0,4.712825418E-1,1.744020283E-1
2.108274471E0,-1.969582319E0,4.477642179E-1,1.899790913E-1
2.110414973E0,-1.958586693E0,4.231768847E-1,2.018909603E-1
2.112566198E0,-1.938886285E0,3.985895813E-1,2.124283910E-1
2.114712621E0,-1.920407653E0,3.717114925E-1,2.218967974E-1
2.116861190E0,-1.899638176E0,3.459024429E-1,2.299907655E-1
2.119017817E0,-1.873829126E0,3.176499307E-1,2.382374406E-1
2.121169885E0,-1.849241853E0,2.895501256E-1,2.438879460E-1
2.123323775E0,-1.821141958E0,2.626720667E-1,2.483167201E-1
2.125467330E0,-1.794111252E0,2.344195396E-1,2.527455091E-1
2.127617944E0,-1.764789701E0,2.063197345E-1,2.548835278E-1
2.129768792E0,-1.731650233E0,1.782199293E-1,2.556470931E-1
2.131919599E0,-1.698663473E0,1.501201391E-1,2.551889420E-1
2.134066807E0,-1.663080573E0,1.221730486E-1,2.535090744E-1
2.136220350E0,-1.626428723E0,9.529497474E-2,2.518292069E-1
2.138373010E0,-1.589624047E0,6.841690838E-2,2.477058619E-1
2.140523399E0,-1.550528765E0,4.413501546E-2,2.448042482E-1
2.142673170E0,-1.510058880E0,1.847867295E-2,2.406809032E-1
2.144822990E0,-1.472185254E0,-3.359758761E-3,2.354885489E-1
2.146973259E0,-1.429424644E0,-2.519819140E-2,2.301434875E-1
2.149121920E0,-1.387733102E0,-4.963280261E-2,2.235766798E-1
2.151264884E0,-1.343750834E0,-7.147123665E-2,2.182316035E-1
2.153426211E0,-1.302212000E0,-9.330966324E-2,2.130392492E-1
2.155575248E0,-1.259298682E0,-1.139263660E-1,2.052507252E-1
2.157727642E0,-1.214094639E0,-1.369865239E-1,1.999056488E-1
2.159876659E0,-1.168890595E0,-1.589776874E-1,1.934915632E-1
2.162027589E0,-1.121090412E0,-1.795943826E-1,1.869247705E-1
2.164177807E0,-1.077108145E0,-2.002110779E-1,1.779145002E-1
2.166327037E0,-1.031904101E0,-2.196060568E-1,1.727221459E-1
2.168479167E0,-9.853256345E-1,-2.390010208E-1,1.661553532E-1
2.170630677E0,-9.376781583E-1,-2.583959997E-1,1.608102769E-1
2.172777934E0,-8.924741149E-1,-2.777909636E-1,1.543961912E-1
2.174917165E0,-8.458956480E-1,-2.984076738E-1,1.490511149E-1
2.177079499E0,-8.006916046E-1,-3.165809214E-1,1.438587606E-1
2.179231130E0,-7.567093372E-1,-3.361285925E-1,1.409571618E-1
2.181384908E0,-7.127270103E-1,-3.543018401E-1,1.357648075E-1
2.183531107E0,-6.685920358E-1,-3.736968040E-1,1.328631938E-1
2.185679127E0,-6.246097088E-1,-3.932445049E-1,1.313360333E-1
2.187824778E0,-5.816964507E-1,-4.114177525E-1,1.296561509E-1
2.189987222E0,-5.413793325E-1,-4.309654236E-1,1.293507218E-1
2.192131377E0,-5.022839308E-1,-4.491386712E-1,1.276708394E-1
2.194274067E0,-4.642575979E-1,-4.662429094E-1,1.261436790E-1
2.196433744E0,-4.288274050E-1,-4.844161272E-1,1.270599663E-1
2.198585936E0,-3.958406746E-1,-5.015203953E-1,1.279762685E-1
2.200739541E0,-3.627012372E-1,-5.174028873E-1,1.301143020E-1
2.202887653E0,-3.358231783E-1,-5.320636034E-1,1.298088580E-1
2.205040078E0,-3.101668358E-1,-5.442809463E-1,1.307251602E-1
2.207187498E0,-2.868012190E-1,-5.551238060E-1,1.305724531E-1
2.209338286E0,-2.684752643E-1,-5.636758804E-1,1.328631938E-1
2.211488126E0,-2.525927722E-1,-5.722280145E-1,1.339322031E-1
2.213637378E0,-2.403754741E-1,-5.746715069E-1,1.362229437E-1
2.215780759E0,-2.318233550E-1,-5.758932233E-1,1.398881376E-1
2.217939877E0,-2.281581759E-1,-5.746715069E-1,1.423316002E-1
2.220090827E0,-2.244929820E-1,-5.673410892E-1,1.461495161E-1
2.222244168E0,-2.293798923E-1,-5.575672388E-1,1.485929638E-1
2.224392605E0,-2.342668176E-1,-5.442809463E-1,1.536326110E-1
2.226540961E0,-2.428189367E-1,-5.283984542E-1,1.563815027E-1
2.228692766E0,-2.562579811E-1,-5.088507533E-1,1.627955884E-1
2.230843441E0,-2.735149264E-1,-4.880813360E-1,1.679879427E-1
2.232995185E0,-2.930625975E-1,-4.648684561E-1,1.731802970E-1
2.235140417E0,-3.150537610E-1,-4.405865669E-1,1.808161139E-1
2.237284745E0,-3.396410644E-1,-4.137084782E-1,1.886046380E-1
2.239446183E0,-3.689626157E-1,-3.833179474E-1,1.951714456E-1
2.241597214E0,-3.984368443E-1,-3.527746797E-1,2.029599845E-1
2.243748663E0,-4.302018583E-1,-3.211624026E-1,2.144137025E-1
2.245895452E0,-4.619668424E-1,-2.869539559E-1,2.246456891E-1
2.248048020E0,-4.975497425E-1,-2.528982162E-1,2.325869352E-1
2.250194391E0,-5.305364728E-1,-2.186897546E-1,2.440406680E-1
2.252335627E0,-5.685628057E-1,-1.834122837E-1,2.556470931E-1
2.254498316E0,-6.039929986E-1,-1.505782902E-1,2.683225572E-1
2.256648268E0,-6.430884004E-1,-1.177442744E-1,2.785545588E-1
2.258805465E0,-6.786713004E-1,-8.246681094E-2,2.913827300E-1
2.260954797E0,-7.177666426E-1,-4.963280261E-2,3.052799106E-1
2.263101017E0,-7.521278262E-1,-1.664607786E-2,3.191770911E-1
2.265249790E0,-7.887797356E-1,1.618792862E-2,3.307835162E-1
2.267399245E0,-8.229882121E-1,4.657847434E-2,3.459024429E-1
2.269552128E0,-8.571966290E-1,7.574728876E-2,3.597996235E-1
2.271702945E0,-8.891143799E-1,1.061378345E-1,3.736968040E-1
2.273854872E0,-9.184358716E-1,1.328631938E-1,3.875939846E-1
2.276007978E0,-9.477574229E-1,1.583668143E-1,4.013384581E-1
2.278156578E0,-9.734137654E-1,1.850921661E-1,4.164573848E-1
2.280311363E0,-9.992228150E-1,2.069306076E-1,4.314235747E-1
2.282444796E0,-1.022435665E0,2.287690341E-1,4.451680481E-1
2.284605400E0,-1.044426799E0,2.457205504E-1,4.601342380E-1
2.286752790E0,-1.062752843E0,2.638937831E-1,4.738787115E-1
2.288909212E0,-1.079856992E0,2.797762752E-1,4.862487316E-1
2.291057496E0,-1.094517827E0,2.930625975E-1,4.987714589E-1
2.293208782E0,-1.107956886E0,3.063489199E-1,5.099197626E-1
2.295355266E0,-1.120174170E0,3.159700334E-1,5.186246037E-1
2.297502667E0,-1.127504468E0,3.245221674E-1,5.273294449E-1
2.299655763E0,-1.134834886E0,3.304781020E-1,5.346598029E-1
2.301797435E0,-1.137278318E0,3.365867436E-1,5.445863605E-1
2.303962515E0,-1.138500094E0,3.426954150E-1,5.470298529E-1
2.306111258E0,-1.137278318E0,3.439171314E-1,5.506950021E-1
2.308272573E0,-1.133613229E0,3.451388776E-1,5.531384945E-1
2.310412414E0,-1.128726244E0,3.451388776E-1,5.531384945E-1
2.312562470E0,-1.121395826E0,3.451388776E-1,5.531384945E-1
2.314707540E0,-1.112843752E0,3.463605940E-1,5.519167781E-1
2.316849915E0,-1.101848245E0,3.489567637E-1,5.482515693E-1
2.319012289E0,-1.088409185E0,3.465133011E-1,5.444336534E-1
2.321157765E0,-1.073748350E0,3.454442918E-1,5.395467281E-1
2.323316589E0,-1.057865858E0,3.454442918E-1,5.334380865E-1
2.325463865E0,-1.040761709E0,3.468187451E-1,5.271766782E-1
2.327617115E0,-1.024879217E0,3.445279896E-1,5.198463202E-1
2.329766336E0,-1.004109740E0,3.410155177E-1,5.111414790E-1
2.331912383E0,-9.833403230E-1,3.387247920E-1,5.024366379E-1
2.334048420E0,-9.613491893E-1,3.388774991E-1,4.938845634E-1
2.336216327E0,-9.393580556E-1,3.353650272E-1,4.827362597E-1
2.338368284E0,-9.162978530E-1,3.342960179E-1,4.728097022E-1
2.340523241E0,-8.918632865E-1,3.295617998E-1,4.616613984E-1
2.342669797E0,-8.662069440E-1,3.284927905E-1,4.494441152E-1
2.344820686E0,-8.381071091E-1,3.249803185E-1,4.382958114E-1
2.346969673E0,-8.112290502E-1,3.228422701E-1,4.259257913E-1
2.349122211E0,-7.794640660E-1,3.205515444E-1,4.123340547E-1
2.351276934E0,-7.513642311E-1,3.170390725E-1,4.011857510E-1
2.353419818E0,-7.208209634E-1,3.135266006E-1,3.900374472E-1
2.355558509E0,-6.878342628E-1,3.077233732E-1,3.776674271E-1
2.357708819E0,-6.560692787E-1,3.042109013E-1,3.677408695E-1
2.359873084E0,-6.220135093E-1,2.982549667E-1,3.552181423E-1
2.362027229E0,-5.890268087E-1,2.910772860E-1,3.452915847E-1
2.364176836E0,-5.499314666E-1,2.864958048E-1,3.365867436E-1
2.366323594E0,-5.157229900E-1,2.805398703E-1,3.266601861E-1
2.368474992E0,-4.778493345E-1,2.745839357E-1,3.190243840E-1
2.370625545E0,-4.398229718E-1,2.674062550E-1,3.127630055E-1
2.372776353E0,-4.007275999E-1,2.590068579E-1,3.075706363E-1
2.374926519E0,-3.604104817E-1,2.554943860E-1,3.025310040E-1
2.377077225E0,-3.200933933E-1,2.495384514E-1,2.985603809E-1
2.379228613E0,-2.809980214E-1,2.435825169E-1,2.947424948E-1
2.381378016E0,-2.394591719E-1,2.374738604E-1,2.944370508E-1
2.383528478E0,-1.991420686E-1,2.327396572E-1,2.918408811E-1
2.385674951E0,-1.588249654E-1,2.280054539E-1,2.904664278E-1
2.387819615E0,-1.171334088E-1,2.232712507E-1,2.889392674E-1
2.389981043E0,-7.681630552E-2,2.185370475E-1,2.875648141E-1
2.392130213E0,-3.772092983E-2,2.136501223E-1,2.849686444E-1
2.394280645E0,1.374446787E-3,2.089159191E-1,2.834414840E-1
2.396431055E0,3.924809024E-2,2.066251636E-1,2.808452845E-1
2.398582178E0,7.834346592E-2,2.031126916E-1,2.794708610E-1
2.400733270E0,1.174388453E-1,2.008219510E-1,2.768746614E-1
2.402883457E0,1.540907621E-1,1.960877478E-1,2.716823220E-1
2.405034488E0,1.919644028E-1,1.925752759E-1,2.678644061E-1
2.407182641E0,2.275473028E-1,1.864666194E-1,2.640464902E-1
2.409334456E0,2.641992271E-1,1.805106848E-1,2.626720667E-1
2.411484927E0,2.971859276E-1,1.745547503E-1,2.574796975E-1
2.413633741E0,3.301726580E-1,1.685988009E-1,2.512183189E-1
2.415773053E0,3.643811047E-1,1.638645977E-1,2.498438805E-1
2.417936413E0,3.924809098E-1,1.565342247E-1,2.448042482E-1
2.420086763E0,4.242459238E-1,1.469130963E-1,2.420553565E-1
2.422240775E0,4.560109079E-1,1.421788931E-1,2.370157093E-1
2.424384829E0,4.841107130E-1,1.348485053E-1,2.331978083E-1
2.426522270E0,5.134322643E-1,1.301143020E-1,2.306016237E-1
2.428671958E0,5.392413139E-1,1.229366288E-1,2.254092693E-1
2.430827984E0,5.636758804E-1,1.168279797E-1,2.228130996E-1
2.432994071E0,5.893322229E-1,1.120937690E-1,2.177734673E-1
2.435139680E0,6.137668490E-1,1.073595658E-1,2.115120888E-1
2.437281637E0,6.369797587E-1,1.038470939E-1,2.066251636E-1
2.439441224E0,6.589708924E-1,1.038470939E-1,1.991420686E-1
2.441592153E0,6.785185933E-1,1.039998084E-1,1.918116808E-1
2.443744202E0,6.979135275E-1,1.053742543E-1,1.831068546E-1
2.445893168E0,7.125743032E-1,1.067487001E-1,1.721112877E-1
2.448045543E0,7.260133624E-1,1.117883399E-1,1.586722434E-1
2.450194661E0,7.392996550E-1,1.182024255E-1,1.427897513E-1
2.452344991E0,7.490735054E-1,1.281289905E-1,1.270599663E-1
2.454493764E0,7.564038634E-1,1.357648075E-1,1.087340117E-1
2.456644225E0,7.611380816E-1,1.469130963E-1,8.933904022E-2
2.458797099E0,7.646505833E-1,1.582140923E-1,6.627888232E-2
2.460950957E0,7.658722997E-1,1.695151031E-1,4.199698567E-2
2.463097646E0,7.632761002E-1,1.820378453E-1,1.527163107E-2
2.465248299E0,7.582364678E-1,1.933388561E-1,-1.023199316E-2
2.467394734E0,7.496843934E-1,2.008219510E-1,-3.466660157E-2
2.469544890E0,7.409795523E-1,2.072360367E-1,-6.017022580E-2
2.471698830E0,7.312057018E-1,2.110539377E-1,-8.078692853E-2
2.473850126E0,7.200574279E-1,2.173153162E-1,-9.789115191E-2
2.476001727E0,7.078400850E-1,2.160935849E-1,-1.099557430E-1
2.478153715E0,6.944010854E-1,2.199114859E-1,-1.185078546E-1
2.480313972E0,6.821837425E-1,2.211332172E-1,-1.207986027E-1
2.482452237E0,6.724098921E-1,2.209804952E-1,-1.171334088E-1
2.484601550E0,6.577491760E-1,2.220495194E-1,-1.098030284E-1
2.486744036E0,6.430884004E-1,2.194533348E-1,-9.376781434E-2
2.488886797E0,6.322455406E-1,2.156354338E-1,-7.299839705E-2
2.491050310E0,6.175847650E-1,2.116648108E-1,-4.856378585E-2
2.493188830E0,6.055201888E-1,2.063197345E-1,-1.695151068E-2
2.495344814E0,5.920811296E-1,1.974621862E-1,1.725694351E-2
2.497489041E0,5.824599862E-1,1.823432744E-1,5.619960278E-2
2.499643562E0,5.716171265E-1,1.634064466E-1,9.758572280E-2
2.501792385E0,5.645921826E-1,1.421788931E-1,1.388191283E-1
2.503946122E0,5.549710989E-1,1.172861308E-1,1.802052408E-1
2.506108567E0,5.502368808E-1,8.994990587E-2,2.189951837E-1
2.508266597E0,5.467243791E-1,6.017022580E-2,2.539672256E-1
2.510411067E0,5.419901609E-1,2.550362423E-2,2.866485119E-1
2.512560247E0,5.409211516E-1,-7.788531948E-3,3.119994104E-1
2.514711828E0,5.398521423E-1,-4.108068720E-2,3.298672438E-1
2.516858638E0,5.412266254E-1,-7.192938030E-2,3.430008292E-1
2.519010859E0,5.412266254E-1,-1.050688252E-1,3.474296033E-1
2.521160282E0,5.438227654E-1,-1.368338168E-1,3.434589803E-1
2.523315058E0,5.438227654E-1,-1.673770845E-1,3.321579695E-1
2.525459508E0,5.438227654E-1,-1.928807050E-1,3.110831380E-1
2.527610579E0,5.389358401E-1,-2.159408629E-1,2.826778889E-1
2.529761275E0,5.389358401E-1,-2.351831198E-1,2.458732575E-1
2.531912794E0,5.326744914E-1,-2.457205504E-1,2.005165219E-1
2.534062118E0,5.239696503E-1,-2.525927722E-1,1.492038369E-1
2.536212803E0,5.140430927E-1,-2.545780838E-1,9.300423414E-2
2.538364750E0,5.041165352E-1,-2.490803003E-1,2.962696366E-2
2.540515353E0,4.891503453E-1,-2.386955917E-1,-3.863722831E-2
2.542665744E0,4.754058719E-1,-2.220495194E-1,-1.104138941E-1
2.544815707E0,4.579962194E-1,-2.005165219E-1,-1.895209402E-1
2.546966372E0,4.393648207E-1,-1.692096740E-1,-2.709187269E-1
2.549115350E0,4.207334518E-1,-1.316414624E-1,-3.558290005E-1
2.551260093E0,3.996585906E-1,-8.674286306E-2,-4.431827366E-1
2.553411858E0,3.747658134E-1,-3.558290005E-2,-5.378668308E-1
2.555558493E0,3.510948122E-1,1.924225502E-2,-6.348416805E-1
2.557719393E0,3.249803185E-1,8.124507964E-2,-7.279986739E-1
2.559870200E0,2.988658249E-1,1.484402567E-1,-8.261952400E-1
2.562022097E0,2.703078687E-1,2.203696370E-1,-9.240863919E-1
2.564167350E0,2.429716438E-1,2.959642112E-1,-1.019686818E0
2.566305187E0,2.144137025E-1,3.727805018E-1,-1.112691045E0
2.568456524E0,1.846340150E-1,4.520402849E-1,-1.204473495E0
2.570605805E0,1.572978050E-1,5.299255848E-1,-1.291521788E0
2.572759523E0,1.299615800E-1,6.053674817E-1,-1.373530507E0
2.574911072E0,1.038470939E-1,6.808093190E-1,-1.450804949E0
2.577065461E0,8.277224004E-2,7.525860071E-1,-1.520748973E0
2.579211254E0,6.276640296E-2,8.193230033E-1,-1.588249683E0
2.581362244E0,4.169155285E-2,8.787296414E-1,-1.648572564E0
2.583512777E0,2.183843218E-2,9.343183637E-1,-1.705230355E0
2.585663462E0,5.650503561E-3,9.825767279E-1,-1.754710436E0
2.587812652E0,-1.160643995E-2,1.024573684E0,-1.799456239E0
2.589962879E0,-2.535090782E-2,1.063058257E0,-1.840384245E0
2.592113545E0,-3.894266114E-2,1.091463447E0,-1.876730800E0
2.594264638E0,-5.009094998E-2,1.115134478E0,-1.909412026E0
2.596415150E0,-6.123924255E-2,1.136209369E0,-1.937206388E0
2.598565622E0,-6.979135424E-2,1.149801135E0,-1.960266590E0
2.600716379E0,-7.849618047E-2,1.160949349E0,-1.980883241E0
2.602867624E0,-8.597928286E-2,1.167363524E0,-2.000278234E0
2.605017434E0,-9.330966324E-2,1.168585181E0,-2.012495518E0
2.607167458E0,-9.941831976E-2,1.167516232E0,-2.022116661E0
2.609317666E0,-1.043052375E-1,1.165072680E0,-2.029599667E0
2.611468361E0,-1.079704314E-1,1.157742381E0,-2.034486771E0
2.613620288E0,-1.153008118E-1,1.150411963E0,-2.036930084E0
2.615774299E0,-1.189660057E-1,1.143081546E0,-2.038304567E0
2.617920123E0,-1.214094684E-1,1.132086039E0,-2.037235498E0
2.620071459E0,-1.262963861E-1,1.123381138E0,-2.036013842E0
2.622223020E0,-1.298088580E-1,1.112385631E0,-2.036166668E0
2.624387246E0,-1.346957833E-1,1.105055213E0,-2.036166668E0
2.626536445E0,-1.359175146E-1,1.097724795E0,-2.037540913E0
2.628688566E0,-1.395827085E-1,1.091616154E0,-2.039984465E0
2.630836279E0,-1.444696337E-1,1.090394497E0,-2.043649673E0
2.632988339E0,-1.481348276E-1,1.090394497E0,-2.049758434E0
2.635133520E0,-1.519527286E-1,1.097877502E0,-2.056936026E0
2.637278347E0,-1.580613852E-1,1.108873129E0,-2.067778826E0
2.639437131E0,-1.605048478E-1,1.122464895E0,-2.078621626E0
2.641588456E0,-1.643227488E-1,1.143387079E0,-2.090686321E0
2.643740658E0,-1.693623960E-1,1.164461851E0,-2.106263399E0
2.645888291E0,-1.754710376E-1,1.190270901E0,-2.121840477E0
2.648040838E0,-1.805106848E-1,1.218676209E0,-2.138486624E0
2.650184789E0,-1.843285859E-1,1.249372125E0,-2.155285358E0
2.652329544E0,-1.905899495E-1,1.286329508E0,-2.173153162E0
2.654491725E0,-1.931861341E-1,1.323286891E0,-2.192242622E0
2.656641016E0,-2.018909603E-1,1.365131140E0,-2.211332083E0
2.658795852E0,-2.044871449E-1,1.408197165E0,-2.232865095E0
2.660944411E0,-2.083050460E-1,1.453706622E0,-2.253023624E0
2.663093633E0,-2.096794993E-1,1.503033876E0,-2.274404049E0
2.665244175E0,-2.112066597E-1,1.554652095E0,-2.297006130E0
2.667392288E0,-2.064724565E-1,1.606422901E0,-2.317317247E0
2.669544967E0,-2.102903575E-1,1.660484433E0,-2.339766502E0
2.671695916E0,-2.044871449E-1,1.718363881E0,-2.361146927E0
2.673846429E0,-2.034181207E-1,1.772425532E0,-2.382527113E0
2.675998020E0,-1.962404549E-1,1.827861547E0,-2.403907537E0
2.678143599E0,-1.878410578E-1,1.884366512E0,-2.422844172E0
2.680281324E0,-1.808161139E-1,1.941024303E0,-2.443002939E0
2.682434238E0,-1.699732542E-1,1.992642403E0,-2.462092400E0
2.684594780E0,-1.566869318E-1,2.043191433E0,-2.479807377E0
2.686739393E0,-1.446223408E-1,2.089922667E0,-2.497675180E0
2.688906243E0,-1.288925707E-1,2.136806726E0,-2.514321327E0
2.691046551E0,-1.119410545E-1,2.179872513E0,-2.529745579E0
2.693187574E0,-9.743300825E-2,2.218051672E0,-2.542726517E0
2.695336550E0,-7.681630552E-2,2.254856348E0,-2.553416729E0
2.697499829E0,-5.604688451E-2,2.286926746E0,-2.564106941E0
2.699654858E0,-3.420845419E-2,2.314110279E0,-2.572506189E0
2.701805350E0,-1.221730467E-2,2.339919329E0,-2.580752850E0
2.703949861E0,1.572977938E-2,2.359772444E0,-2.586861610E0
2.706094921E0,4.138612002E-2,2.375807762E0,-2.591595888E0
2.708257559E0,7.070764899E-2,2.389399290E0,-2.592817545E0
2.710404440E0,9.880745411E-2,2.397951603E0,-2.594039202E0
2.712552673E0,1.293507218E-1,2.401769400E0,-2.592817545E0
2.714686677E0,1.574505121E-1,2.402991056E0,-2.590526819E0
2.716855764E0,1.879937798E-1,2.399478674E0,-2.585792542E0
2.719011831E0,2.185370475E-1,2.395813465E0,-2.582280159E0
2.721163879E0,2.504547536E-1,2.384817839E0,-2.575255156E0
2.723314677E0,2.834414840E-1,2.372600555E0,-2.567008495E0
2.725454640E0,3.141374588E-1,2.356565475E0,-2.556318283E0
2.727606780E0,3.483459055E-1,2.337017775E0,-2.545628309E0
2.729756835E0,3.827070892E-1,2.317470074E0,-2.533716202E0
2.731909708E0,4.195117056E-1,2.294104338E0,-2.517070293E0
2.734056874E0,4.538728893E-1,2.267073631E0,-2.500424147E0
2.736197224E0,4.893030524E-1,2.242486238E0,-2.483778000E0
2.738360960E0,5.273294449E-1,2.213011980E0,-2.463466883E0
2.740511971E0,5.604688525E-1,2.183537722E0,-2.444377184E0
2.742664692E0,5.972734690E-1,2.150245667E0,-2.422844172E0
2.744812396E0,6.340781450E-1,2.117106199E0,-2.400242329E0
2.746963856E0,6.708827615E-1,2.082592249E0,-2.377487421E0
2.749110676E0,7.052439451E-1,2.045787811E0,-2.352442026E0
2.751253639E0,7.422012687E-1,2.008830309E0,-2.328618288E0
2.753413399E0,7.765624523E-1,1.969429493E0,-2.303420067E0
2.755563402E0,8.145887852E-1,1.931403160E0,-2.277153015E0
2.757717720E0,8.489499688E-1,1.892002344E0,-2.253329277E0
2.759865414E0,8.845328689E-1,1.851379871E0,-2.227061987E0
2.762016233E0,9.190467596E-1,1.809535623E0,-2.200794697E0
2.764166816E0,9.534079432E-1,1.769065738E0,-2.174527645E0
2.766318204E0,9.877691269E-1,1.725999713E0,-2.147038698E0
2.768467770E0,1.023352027E0,1.684155464E0,-2.121993065E0
2.770617987E0,1.055422425E0,1.643532991E0,-2.095726013E0
2.772768499E0,1.088561893E0,1.599245191E0,-2.070680380E0
2.774919785E0,1.121701360E0,1.554957509E0,-2.043191433E0
2.777068193E0,1.152549982E0,1.514334917E0,-2.015702486E0
2.779220150E0,1.182024240E0,1.470047235E0,-1.989435434E0
2.781370885E0,1.210276723E0,1.425759435E0,-1.964389920E0
2.783523138E0,1.238529325E0,1.382693529E0,-1.938122749E0
2.785667170E0,1.265712738E0,1.339627504E0,-1.913077235E0
2.787809301E0,1.292743564E0,1.295339704E0,-1.888031721E0
2.789972559E0,1.317330956E0,1.252273798E0,-1.864207983E0
2.792125218E0,1.340696454E0,1.211803913E0,-1.841606021E0
2.794280136E0,1.362840414E0,1.168737888E0,-1.816560507E0
2.796422632E0,1.383915186E0,1.128115416E0,-1.792584062E0
2.798574285E0,1.399950385E0,1.088714600E0,-1.769982100E0
2.800723983E0,1.418429136E0,1.050535560E0,-1.748449087E0
2.802877843E0,1.432020903E0,1.013578176E0,-1.726916075E0
2.805033430E0,1.446834326E0,9.766207933E-1,-1.707826495E0
2.807172417E0,1.457982659E0,9.410378933E-1,-1.688736916E0
2.809315352E0,1.466687441E0,9.077457786E-1,-1.669647455E0
2.811473249E0,1.475392342E0,8.756753206E-1,-1.651779652E0
2.813616977E0,1.481500983E0,8.474228382E-1,-1.634980798E0
2.815773613E0,1.486540556E0,8.177958727E-1,-1.620625496E0
2.817927585E0,1.489136696E0,7.907650471E-1,-1.606270194E0
2.820081779E0,1.490358472E0,7.637342811E-1,-1.593136549E0
2.822231956E0,1.490511179E0,7.402159572E-1,-1.580002904E0
2.824380852E0,1.491885662E0,7.180721164E-1,-1.566869378E0
2.826530764E0,1.489442229E0,6.959282160E-1,-1.553583026E0
2.828678835E0,1.484707952E0,6.760751009E-1,-1.544114590E0
2.830821128E0,1.482264519E0,6.575964093E-1,-1.533271790E0
2.832984265E0,1.476308584E0,6.415612102E-1,-1.522428870E0
2.835130383E0,1.470199943E0,6.243042946E-1,-1.511586070E0
2.837281139E0,1.460578799E0,6.107125282E-1,-1.500743151E0
2.839433372E0,1.450804949E0,5.995642543E-1,-1.492343783E0
2.841584983E0,1.442252874E0,5.847507715E-1,-1.480279207E0
2.843736818E0,1.430188298E0,5.699372888E-1,-1.471879840E0
2.845884369E0,1.417970896E0,5.537493229E-1,-1.463327646E0
2.848035675E0,1.403462887E0,5.389358401E-1,-1.451263070E0
2.850179911E0,1.385136962E0,5.216789246E-1,-1.442863703E0
2.852336538E0,1.368032694E0,5.044219494E-1,-1.434464335E0
2.854486960E0,1.349859476E0,4.845688641E-1,-1.424843192E0
2.856638479E0,1.329089999E0,4.660901725E-1,-1.415222049E0
2.858790406E0,1.310916781E0,4.451680481E-1,-1.406822681E0
2.860941009E0,1.288925648E0,4.240931869E-1,-1.397201538E0
2.863090138E0,1.265865445E0,4.031710625E-1,-1.388802171E0
2.865240782E0,1.241430879E0,3.820962012E-1,-1.380402684E0
2.867388599E0,1.217149019E0,3.599523604E-1,-1.372003317E0
2.869540923E0,1.192714334E0,3.376557529E-1,-1.362382174E0
2.871690978E0,1.165836334E0,3.191770911E-1,-1.352761030E0
2.873841826E0,1.139110923E0,2.968805134E-1,-1.344361663E0
2.875991331E0,1.109789491E0,2.771801054E-1,-1.335809588E0
2.878141437E0,1.078177214E0,2.561052442E-1,-1.327410221E0
2.880282916E0,1.043968678E0,2.364048511E-1,-1.320232511E0
2.882444161E0,1.012356400E0,2.165517360E-1,-1.311833143E0
2.884591806E0,9.769262671E-1,1.991420686E-1,-1.304502726E0
2.886738086E0,9.414960742E-1,1.806633919E-1,-1.298394084E0
2.888895394E0,9.011789560E-1,1.632537395E-1,-1.292438149E0
2.891045937E0,8.634580374E-1,1.472185254E-1,-1.286329508E0
2.893198515E0,8.219192028E-1,1.348485053E-1,-1.281442523E0
2.895346177E0,7.803803682E-1,1.211040318E-1,-1.275333881E0
2.897495958E0,7.412849665E-1,1.099557430E-1,-1.270447016E0
2.899647977E0,6.962336898E-1,9.865473956E-2,-1.265407324E0
2.901799781E0,6.534730792E-1,9.117163718E-2,-1.260520458E0
2.903953610E0,6.107125282E-1,8.613199741E-2,-1.255480766E0
2.906098202E0,5.630650520E-1,8.093964309E-2,-1.250441194E0
2.908250881E0,5.178610086E-1,7.712173462E-2,-1.246775985E0
2.910399369E0,4.714352489E-1,7.208210230E-2,-1.242958069E0
2.912549221E0,4.201225638E-1,6.826419383E-2,-1.239140153E0
2.914688208E0,3.700316250E-1,6.551529467E-2,-1.236544013E0
2.916846288E0,3.236058652E-1,6.536258012E-2,-1.231504321E0
2.918985073E0,2.722931802E-1,6.398813426E-2,-1.228755474E0
2.921159094E0,2.209804952E-1,6.139195710E-2,-1.224937558E0
2.923313757E0,1.721112877E-1,6.612616032E-2,-1.223563075E0
2.925454025E0,1.195768714E-1,6.582073122E-2,-1.219592452E0
2.927589543E0,6.933320314E-2,7.177666575E-2,-1.216996312E0
2.929740564E0,1.557706390E-2,7.895433158E-2,-1.215469122E0
2.931905909E0,-3.573561832E-2,8.491026610E-2,-1.211498499E0
2.934056066E0,-8.704829961E-2,9.086620808E-2,-1.207527876E0
2.936196477E0,-1.395827085E-1,1.004873365E-1,-1.206000686E0
2.938347356E0,-1.945605874E-1,1.088867337E-1,-1.200808406E0
2.940507226E0,-2.472477108E-1,1.160643995E-1,-1.196837783E0
2.942660252E0,-2.997821271E-1,1.255328059E-1,-1.189201951E0
2.944811129E0,-3.510948122E-1,1.363756657E-1,-1.184009552E0
2.946961266E0,-4.036292136E-1,1.459967941E-1,-1.176373720E0
2.949106540E0,-4.549418986E-1,1.507309973E-1,-1.167668939E0
2.951248202E0,-5.038111210E-1,1.589776874E-1,-1.157589674E0
2.953406467E0,-5.539020896E-1,1.661553532E-1,-1.147510409E0
2.955547508E0,-6.027712822E-1,1.744020283E-1,-1.134987593E0
2.957713086E0,-6.504187584E-1,1.789835095E-1,-1.123839378E0
2.959861656E0,-6.968445182E-1,1.837177277E-1,-1.111316562E0
2.962015678E0,-7.432702780E-1,1.858557463E-1,-1.096503139E0
2.964165916E0,-7.872526050E-1,1.867720485E-1,-1.082911372E0
2.966320477E0,-8.287914395E-1,1.876883507E-1,-1.066876173E0
2.968463869E0,-8.689557910E-1,1.863138974E-1,-1.049619198E0
2.970613862E0,-9.104946256E-1,1.823432744E-1,-1.033583999E0
2.972762809E0,-9.508117437E-1,1.783726513E-1,-1.015105367E0
2.974914897E0,-9.885326624E-1,1.718058437E-1,-9.955576062E-1
2.977064535E0,-1.025184631E0,1.641700417E-1,-9.772316813E-1
2.979216605E0,-1.061836481E0,1.553124934E-1,-9.552405477E-1
2.981367615E0,-1.098335743E0,1.476766765E-1,-9.330966473E-1
2.983514253E0,-1.133765936E0,1.374446750E-1,-9.098837972E-1
2.985655132E0,-1.170265079E0,1.249219403E-1,-8.854491711E-1
2.987819194E0,-1.204320788E0,1.110247597E-1,-8.597928286E-1
2.989968068E0,-1.240972757E0,9.850201756E-2,-8.316930532E-1
2.992123159E0,-1.275028467E0,8.460483700E-2,-8.037459254E-1
2.994272797E0,-1.311527729E0,7.070764899E-2,-7.732026577E-1
2.996420278E0,-1.349248648E0,5.314527452E-2,-7.402159572E-1
2.998571858E0,-1.385900497E0,3.787364438E-2,-7.049384713E-1
3.000720153E0,-1.421177983E0,2.153299935E-2,-6.695083380E-1
3.002871998E0,-1.461342335E0,2.748893574E-3,-6.316346526E-1
3.005022897E0,-1.500285029E0,-1.618792862E-2,-5.926920176E-1
3.007171426E0,-1.539227724E0,-4.001167417E-2,-5.525276065E-1
3.009323241E0,-1.576948643E0,-6.017022580E-2,-5.085453391E-1
3.011470040E0,-1.618334770E0,-8.277224004E-2,-4.634940028E-1
3.013611886E0,-1.657124639E0,-1.078177169E-1,-4.196644127E-1
3.015775317E0,-1.699732542E0,-1.342376322E-1,-3.709479272E-1
3.017923979E0,-1.742340446E0,-1.629483104E-1,-3.222314119E-1
3.020078835E0,-1.783726573E0,-1.930334121E-1,-2.748893499E-1
3.022226164E0,-1.826181650E0,-2.229658216E-1,-2.237294018E-1
3.024376514E0,-1.866346002E0,-2.554943860E-1,-1.713477075E-1
3.026525917E0,-1.908801198E0,-2.892446816E-1,-1.191187203E-1
3.028677619E0,-1.951408982E0,-3.229950070E-1,-6.429356337E-2
3.030828386E0,-1.990198970E0,-3.604104817E-1,-1.084285788E-2
3.032980048E0,-2.030363321E0,-3.966042697E-1,4.505131021E-2
3.035127437E0,-2.070374966E0,-4.327980280E-1,1.009454802E-1
3.037278805E0,-2.110386610E0,-4.726569951E-1,1.580613852E-1
3.039429786E0,-2.149329424E0,-5.088507533E-1,2.151772827E-1
3.041580888E0,-2.184454203E0,-5.488623977E-1,2.722931802E-1
3.043727912E0,-2.222175121E0,-5.850561857E-1,3.294090927E-1
3.045868729E0,-2.258521557E0,-6.212499738E-1,3.889684379E-1
3.048037065E0,-2.291202784E0,-6.562219858E-1,4.448626041E-1
3.050197566E0,-2.322815180E0,-6.911939979E-1,5.019785166E-1
3.052336329E0,-2.353052855E0,-7.261660695E-1,5.580254197E-1
3.054482824E0,-2.382221699E0,-7.574729323E-1,6.151412725E-1
3.056629186E0,-2.407572746E0,-7.886270285E-1,6.685920358E-1
3.058784938E0,-2.431854486E0,-8.199338913E-1,7.220427394E-1
3.060932307E0,-2.453540325E0,-8.498662710E-1,7.742717266E-1
3.063072169E0,-2.471713543E0,-8.749117255E-1,8.217664957E-1
3.065238641E0,-2.484999895E0,-9.024006724E-1,8.703302741E-1
3.067386042E0,-2.498133421E0,-9.311113358E-1,9.176723361E-1
3.069540584E0,-2.510198116E0,-9.572258592E-1,9.602801800E-1
3.071686945E0,-2.516154051E0,-9.810495973E-1,1.002735257E0
3.073838404E0,-2.520888090E0,-1.005942345E0,1.042747021E0
3.075989567E0,-2.521957159E0,-1.029613376E0,1.079093456E0
3.078136326E0,-2.520582676E0,-1.050688267E0,1.113149166E0
3.080278446E0,-2.516764879E0,-1.070541382E0,1.144608736E0
3.082440006E0,-2.508059978E0,-1.090394497E0,1.172403097E0
3.084588393E0,-2.500576973E0,-1.107804179E0,1.197906733E0
3.086730869E0,-2.488359690E0,-1.121548533E0,1.219592452E0
3.088891951E0,-2.474767923E0,-1.135140300E0,1.240209222E0
3.091041964E0,-2.456289053E0,-1.147510409E0,1.255786180E0
3.093195356E0,-2.436741352E0,-1.158658624E0,1.272737741E0
3.095341179E0,-2.413375854E0,-1.165989041E0,1.286024094E0
3.097492007E0,-2.390162945E0,-1.168585181E0,1.294423461E0
3.099644188E0,-2.363284826E0,-1.173472166E0,1.301601171E0
3.101796765E0,-2.332741737E0,-1.175762892E0,1.307557106E0
3.103948458E0,-2.303267479E0,-1.175762892E0,1.313513041E0
3.106094534E0,-2.270280600E0,-1.175762892E0,1.317178130E0
3.108247032E0,-2.234850407E0,-1.175610185E0,1.320690632E0
3.110395621E0,-2.198198557E0,-1.176831841E0,1.321759701E0
3.112546622E0,-2.161546707E0,-1.176679134E0,1.325272202E0
3.114693919E0,-2.123672962E0,-1.177900910E0,1.327562928E0
3.116847494E0,-2.083355904E0,-1.178969979E0,1.328631878E0
3.119001690E0,-2.041664362E0,-1.183704138E0,1.328326464E0
3.121153625E0,-1.998903751E0,-1.193477988E0,1.331686258E0
3.123313762E0,-1.956143260E0,-1.199433923E0,1.332755208E0
3.125447459E0,-1.913229942E0,-1.211651206E0,1.336115003E0
3.127598948E0,-1.868025899E0,-1.226159215E0,1.337031364E0
3.129747283E0,-1.825265408E0,-1.243263483E0,1.341460109E0
3.131902130E0,-1.781130314E0,-1.261589408E0,1.344819784E0
3.134053202E0,-1.738369823E0,-1.282358885E0,1.351692080E0
3.136202381E0,-1.693013072E0,-1.305571795E0,1.356120825E0
3.138352965E0,-1.647656322E0,-1.331228137E0,1.364214778E0
3.140503132E0,-1.601230502E0,-1.353219271E0,1.373530507E0
3.142653981E0,-1.550986886E0,-1.382540822E0,1.384067893E0
3.144804869E0,-1.503186703E0,-1.410640597E0,1.395827055E0
3.146953846E0,-1.452942967E0,-1.440114856E0,1.409876943E0
3.149094878E0,-1.401477575E0,-1.468367338E0,1.426523089E0
3.151261127E0,-1.350012183E0,-1.502728462E0,1.446681619E0
3.153406727E0,-1.297325015E0,-1.535867929E0,1.466840148E0
3.155558134E0,-1.242194533E0,-1.570229053E0,1.489442229E0
3.157704852E0,-1.187063932E0,-1.605811954E0,1.513265967E0
3.159858527E0,-1.131933331E0,-1.641394973E0,1.539533138E0
3.162012235E0,-1.075580955E0,-1.680795670E0,1.568091035E0
3.164162025E0,-1.017854214E0,-1.721265554E0,1.598023534E0
3.166320829E0,-9.615018964E-1,-1.761888027E0,1.627803206E0
3.168459358E0,-9.049968719E-1,-1.802357912E0,1.657735586E0
3.170611528E0,-8.474228382E-1,-1.844202161E0,1.688736916E0
3.172755723E0,-7.922922373E-1,-1.886046410E0,1.718669415E0
3.174902868E0,-7.370089293E-1,-1.927890658E0,1.749670744E0
3.177061886E0,-6.806566119E-1,-1.969582319E0,1.779603124E0
3.179212511E0,-6.291912198E-1,-2.006539583E0,1.807092071E0
3.181364803E0,-5.775730610E-1,-2.044565916E0,1.834428310E0
3.183509121E0,-5.273294449E-1,-2.080301523E0,1.860695481E0
3.185647903E0,-4.807509482E-1,-2.112219334E0,1.884672046E0
3.187799220E0,-4.378376603E-1,-2.142915249E0,1.906052232E0
3.189948919E0,-3.961461186E-1,-2.168724298E0,1.926363587E0
3.192102595E0,-3.593414724E-1,-2.194533348E0,1.946674824E0
3.194255082E0,-3.263547719E-1,-2.217899084E0,1.961030126E0
3.196415898E0,-2.932153046E-1,-2.236224890E0,1.974163771E0
3.198570073E0,-2.674062550E-1,-2.251038313E0,1.986075640E0
3.200720972E0,-2.429716438E-1,-2.264477491E0,1.994322300E0
3.202870152E0,-2.270891517E-1,-2.271960497E0,2.001499891E0
3.205019719E0,-2.087631971E-1,-2.275625706E0,2.006386995E0
3.207169357E0,-1.939497143E-1,-2.275625706E0,2.008677721E0
3.209322026E0,-1.829541475E-1,-2.271807909E0,2.011121035E0
3.211469476E0,-1.757764816E-1,-2.266921043E0,2.011121035E0
3.213619083E0,-1.733330190E-1,-2.258368731E0,2.008830309E0
3.215770155E0,-1.708895564E-1,-2.247220516E0,2.005317926E0
3.217921370E0,-1.721112877E-1,-2.232559681E0,1.999361992E0
3.220072584E0,-1.783726513E-1,-2.217746258E0,1.993406057E0
3.222223341E0,-1.832595766E-1,-2.198045969E0,1.985159278E0
3.224372725E0,-1.931861341E-1,-2.179567099E0,1.975538254E0
3.226523287E0,-2.066251636E-1,-2.155132532E0,1.966222525E0
3.228673556E0,-2.226603776E-1,-2.130545378E0,1.955532312E0
3.230824363E0,-2.386955917E-1,-2.103514433E0,1.943620443E0
3.232974754E0,-2.594650090E-1,-2.074040174E0,1.935526490E0
3.235125337E0,-2.816088796E-1,-2.044565916E0,1.921323895E0
3.237276024E0,-3.049744666E-1,-2.012648344E0,1.910786510E0
3.239427330E0,-3.283400834E-1,-1.981952310E0,1.901470780E0
3.241576662E0,-3.527746797E-1,-1.950187325E0,1.893376827E0
3.243727317E0,-3.822489381E-1,-1.914604425E0,1.886504650E0
3.245877778E0,-4.080579877E-1,-1.883908391E0,1.879632354E0
3.248023174E0,-4.361577928E-1,-1.847256541E0,1.873981833E0
3.250156718E0,-4.631885588E-1,-1.813048005E0,1.873371005E0
3.252329245E0,-4.902193546E-1,-1.779908657E0,1.871385694E0
3.254479971E0,-5.207626224E-1,-1.746921897E0,1.871843815E0
3.256636973E0,-5.477933884E-1,-1.713935137E0,1.874745488E0
3.258781148E0,-5.758932233E-1,-1.682322860E0,1.877647042E0
3.260931325E0,-6.041457057E-1,-1.654223084E0,1.882992148E0
3.263081655E0,-6.310238242E-1,-1.623679876E0,1.892002344E0
3.265232146E0,-6.568328738E-1,-1.594511032E0,1.898569226E0
3.267382609E0,-6.849326491E-1,-1.563967705E0,1.907579422E0
3.269533427E0,-7.081455588E-1,-1.530981064E0,1.914146304E0
3.271684681E0,-7.351763248E-1,-1.495703578E0,1.924378276E0
3.273834004E0,-7.596109509E-1,-1.461495042E0,1.933388472E0
3.275984699E0,-7.841982841E-1,-1.427439332E0,1.943620443E0
3.278135273E0,-8.074111342E-1,-1.388343930E0,1.952783465E0
3.280286009E0,-8.307767510E-1,-1.352913857E0,1.961793780E0
3.282436278E0,-8.552113175E-1,-1.315040112E0,1.969582319E0
3.284583413E0,-8.749117255E-1,-1.271057844E0,1.978745222E0
3.286721251E0,-8.956811428E-1,-1.225853801E0,1.984243035E0
3.288876443E0,-9.166033268E-1,-1.179428101E0,1.989740849E0
3.291039711E0,-9.363036752E-1,-1.133002281E0,1.994016886E0
3.293191902E0,-9.572258592E-1,-1.079093456E0,1.998292923E0
3.295342099E0,-9.767735004E-1,-1.027780771E0,2.000278234E0
3.297489265E0,-9.952521920E-1,-9.750936627E-1,1.998445630E0
3.299640226E0,-1.014952660E0,-9.224064946E-1,1.999056458E0
3.301790647E0,-1.035874724E0,-8.672759533E-1,1.994933128E0
3.303941302E0,-1.056796908E0,-8.084801435E-1,1.992031574E0
3.306091926E0,-1.077718973E0,-7.521278262E-1,1.984243035E0
3.308243334E0,-1.100015640E0,-6.921103001E-1,1.977676272E0
3.310392554E0,-1.122159481E0,-6.331618428E-1,1.967444181E0
3.312539974E0,-1.144303322E0,-5.694791079E-1,1.954768777E0
3.314677446E0,-1.167668939E0,-5.032002330E-1,1.939802527E0
3.316831305E0,-1.191187263E0,-4.369213581E-1,1.923461914E0
3.318994726E0,-1.216996312E0,-3.669773042E-1,1.904830575E0
3.321148301E0,-1.240514636E0,-2.970332205E-1,1.883755684E0
3.323299017E0,-1.266476393E0,-2.257147133E-1,1.860237360E0
3.325447118E0,-1.293507099E0,-1.507309973E-1,1.835497379E0
3.327596584E0,-1.317025423E0,-7.590000331E-2,1.808313847E0
3.329747258E0,-1.345430732E0,3.054326226E-4,1.781283021E0
3.331897486E0,-1.368949056E0,8.017606288E-2,1.750434399E0
3.334048070E0,-1.396132469E0,1.588249654E-1,1.719738364E0
3.336198562E0,-1.419650793E0,2.350303978E-1,1.686446190E0
3.338349350E0,-1.444390893E0,3.138320148E-1,1.654528499E0
3.340500980E0,-1.466687441E0,3.924809098E-1,1.621236324E0
3.342651544E0,-1.490205765E0,4.686863720E-1,1.585653424E0
3.344800754E0,-1.509906173E0,5.401576161E-1,1.550986886E0
3.346947626E0,-1.530981064E0,6.090326309E-1,1.515251279E0
3.349088190E0,-1.548390627E0,6.754642725E-1,1.481959105E0
3.351252018E0,-1.564578652E0,7.382306457E-1,1.444849014E0
3.353402632E0,-1.576948643E0,7.973318696E-1,1.410029650E0
3.355556379E0,-1.585806131E0,8.503243923E-1,1.379028320E0
3.357703982E0,-1.593289256E0,8.996517658E-1,1.345430732E0
3.359855461E0,-1.599703312E0,9.453139901E-1,1.314123869E0
3.362004550E0,-1.599856019E0,9.848675132E-1,1.284038782E0
3.364155073E0,-1.597565293E0,1.020755768E0,1.255175352E0
3.366302319E0,-1.594052911E0,1.055269718E0,1.227380991E0
3.368443708E0,-1.586875200E0,1.083674908E0,1.203251839E0
3.370606549E0,-1.572367191E0,1.109789491E0,1.179122686E0
3.372757336E0,-1.557859063E0,1.132086039E0,1.158505917E0
3.374910788E0,-1.537089705E0,1.149495721E0,1.137889266E0
3.377059145E0,-1.516472936E0,1.166905284E0,1.120937705E0
3.379208417E0,-1.489594936E0,1.179428101E0,1.103833556E0
3.381358816E0,-1.464091301E0,1.188132882E0,1.089172721E0
3.383508170E0,-1.432326317E0,1.193325281E0,1.075733662E0
3.385656709E0,-1.399339557E0,1.194699645E0,1.062141895E0
3.387792990E0,-1.361465931E0,1.195005178E0,1.049771905E0
3.389942627E0,-1.323592305E0,1.189049244E0,1.038623691E0
3.392111695E0,-1.283275127E0,1.183246017E0,1.027322650E0
3.394266795E0,-1.239292860E0,1.169959664E0,1.014799833E0
3.396419372E0,-1.194088817E0,1.154229879E0,1.003498912E0
3.398563019E0,-1.146441340E0,1.133765936E0,9.896016717E-1
3.400713246E0,-1.096350431E0,1.111927509E0,9.746354818E-1
3.402863465E0,-1.044885039E0,1.086423874E0,9.618073106E-1
3.405014657E0,-9.923505783E-1,1.059851170E0,9.442449808E-1
3.407165252E0,-9.398161769E-1,1.025948167E0,9.265298843E-1
3.409316752E0,-8.860600591E-1,9.931141734E-1,9.065240026E-1
3.411464090E0,-8.297077417E-1,9.579893947E-1,8.851437569E-1
3.413604959E0,-7.759515643E-1,9.191994667E-1,8.636107445E-1
3.415766692E0,-7.221954465E-1,8.778133392E-1,8.373435140E-1
3.417917509E0,-6.670648456E-1,8.378016949E-1,8.110763431E-1
3.420071125E0,-6.133087277E-1,7.941248417E-1,7.834346890E-1
3.422218412E0,-5.607742667E-1,7.480044961E-1,7.533495426E-1
3.424365874E0,-5.119050741E-1,7.018841505E-1,7.221954465E-1
3.426503527E0,-4.604396820E-1,6.545420885E-1,6.896668673E-1
3.428658068E0,-4.140139222E-1,6.059783101E-1,6.595817208E-1
3.430820533E0,-3.688098788E-1,5.598580241E-1,6.272059083E-1
3.432974149E0,-3.236058652E-1,5.174028873E-1,5.960517526E-1
3.435124692E0,-2.831360400E-1,4.725042582E-1,5.671883821E-1
3.437271889E0,-2.403754741E-1,4.349360466E-1,5.410739183E-1
3.439422422E0,-2.000583708E-1,3.959933817E-1,5.160284042E-1
3.441569597E0,-1.621847153E-1,3.620903790E-1,4.922046661E-1
3.443710700E0,-1.230893433E-1,3.304781020E-1,4.734205604E-1
3.445875077E0,-8.750644326E-2,2.964223623E-1,4.570799172E-1
3.448021105E0,-5.451972410E-2,2.660318017E-1,4.444044530E-1
3.450165045E0,-2.015855350E-2,2.344195396E-1,4.352414906E-1
3.452324987E0,1.160643995E-2,2.038762718E-1,4.286746979E-1
3.454473313E0,4.214970022E-2,1.733330190E-1,4.245513380E-1
3.456619248E0,7.040221989E-2,1.452332139E-1,4.228714705E-1
3.458776953E0,9.987647086E-2,1.098030284E-1,4.236350358E-1
3.460927587E0,1.267545372E-1,7.681630552E-2,4.268420935E-1
3.463081518E0,1.537853181E-1,4.245513305E-2,4.312708676E-1
3.465228256E0,1.771509200E-1,9.468411095E-3,4.381431043E-1
3.467378870E0,1.979203373E-1,-2.611448988E-2,4.448626041E-1
3.469529058E0,2.200642079E-1,-6.169738993E-2,4.529565871E-1
3.471679825E0,2.397646159E-1,-9.483683109E-2,4.622722864E-1
3.473830327E0,2.570215464E-1,-1.304197311E-1,4.715879560E-1
3.475981134E0,2.729040384E-1,-1.647808999E-1,4.796819389E-1
3.478132634E0,2.864958048E-1,-1.977676302E-1,4.865541756E-1
3.480282851E0,2.964223623E-1,-2.309070677E-1,4.948008358E-1
3.482432215E0,3.061962128E-1,-2.628247738E-1,4.992296100E-1
3.484580022E0,3.112358451E-1,-2.922990322E-1,5.038111210E-1
3.486722649E0,3.149010241E-1,-3.203988075E-1,5.035057068E-1
3.488883864E0,3.174972236E-1,-3.462078869E-1,5.032002330E-1
3.491034162E0,3.150537610E-1,-3.657555580E-1,4.992296100E-1
3.493187381E0,3.089450896E-1,-3.865249753E-1,4.941899776E-1
3.495335401E0,3.016147017E-1,-4.024074674E-1,4.867068827E-1
3.497486809E0,2.906191349E-1,-4.146247804E-1,4.743368626E-1
3.499636203E0,2.759583890E-1,-4.219551682E-1,4.596760869E-1
3.501787102E0,2.576324046E-1,-4.291328490E-1,4.437935948E-1
3.503937279E0,2.391537428E-1,-4.277583957E-1,4.243986309E-1
3.506088127E0,2.183843255E-1,-4.263839424E-1,4.024074674E-1
3.508238222E0,1.913535446E-1,-4.164573848E-1,3.758348525E-1
3.510388724E0,1.643227488E-1,-4.051563740E-1,3.466660380E-1
3.512539227E0,1.337794960E-1,-3.915646076E-1,3.152064681E-1
3.514690247E0,9.926560521E-2,-3.717114925E-1,2.802344263E-1
3.516840201E0,6.246097013E-2,-3.455969989E-1,2.428189367E-1
3.518990825E0,2.565634064E-2,-3.171917796E-1,2.005165219E-1
3.521141307E0,-1.374446787E-2,-2.861903608E-1,1.545489132E-1
3.523291729E0,-5.543602258E-2,-2.490803003E-1,1.075122803E-1
3.525442190E0,-9.972374886E-2,-2.095267773E-1,5.558873713E-2
3.527592916E0,-1.440114826E-1,-1.675297916E-1,4.886921961E-3
3.529740214E0,-1.895209402E-1,-1.204931661E-1,-5.054909736E-2
3.531880524E0,-2.386955917E-1,-6.979135424E-2,-1.072068512E-1
3.534038981E0,-2.878702581E-1,-1.664607786E-2,-1.661553532E-1
3.536194702E0,-3.370448947E-1,4.016438872E-2,-2.252565622E-1
3.538348429E0,-3.862195611E-1,9.697485715E-2,-2.866485119E-1
3.540497273E0,-4.378376603E-1,1.598939747E-1,-3.504839242E-1
3.542646117E0,-4.920519590E-1,2.240348309E-1,-4.130976200E-1
3.544796854E0,-5.424483418E-1,2.919935882E-1,-4.755585790E-1
3.546948282E0,-5.954409242E-1,3.634648323E-1,-5.393940210E-1
3.549095906E0,-6.482807398E-1,4.326453209E-1,-6.042984724E-1
3.551237059E0,-7.000515461E-1,5.065600276E-1,-6.679811478E-1
3.553395781E0,-7.504479289E-1,5.830708742E-1,-7.292203903E-1
3.555535012E0,-8.022187948E-1,6.582072973E-1,-7.916813493E-1
3.557689431E0,-8.513934612E-1,7.347181439E-1,-8.529205918E-1
3.559850360E0,-9.007207751E-1,8.135197759E-1,-9.153815508E-1
3.562003243E0,-9.450085163E-1,8.888089061E-1,-9.741773605E-1
3.564154610E0,-9.931141734E-1,9.676105380E-1,-1.035416603E0
3.566299456E0,-1.036180139E0,1.045343161E0,-1.092990637E0
3.568436054E0,-1.079398870E0,1.119257808E0,-1.151786447E0
3.570589770E0,-1.120021462E0,1.194394231E0,-1.209360480E0
3.572753171E0,-1.158200502E0,1.266018271E0,-1.268308997E0
3.574906816E0,-1.194088817E0,1.338711143E0,-1.326035738E0
3.577057400E0,-1.226159215E0,1.405448198E0,-1.382540822E0
3.579204567E0,-1.254564524E0,1.472032547E0,-1.437824130E0
3.581355181E0,-1.281748056E0,1.534951687E0,-1.494329095E0
3.583504330E0,-1.305266261E0,1.593136549E0,-1.549765110E0
3.585645931E0,-1.327562928E0,1.647503614E0,-1.602910399E0
3.587794145E0,-1.346194267E0,1.698205352E0,-1.657124639E0
3.589957270E0,-1.359938741E0,1.748907208E0,-1.710269928E0
3.592109361E0,-1.371239781E0,1.793500304E0,-1.760971785E0
3.594261165E0,-1.380097270E0,1.835650086E0,-1.811826348E0
3.596408493E0,-1.387580395E0,1.872912884E0,-1.861459136E0
3.598559525E0,-1.387885809E0,1.912466407E0,-1.907426715E0
3.600710657E0,-1.391703725E0,1.947285652E0,-1.953394294E0
3.602860266E0,-1.386969566E0,1.977218032E0,-1.999514699E0
3.605010472E0,-1.383609772E0,2.003332615E0,-2.043191433E0
3.607160782E0,-1.373988628E0,2.025781870E0,-2.085799456E0
3.609311487E0,-1.364367485E0,2.043496847E0,-2.127032757E0
3.611458775E0,-1.348637700E0,2.061059237E0,-2.164753675E0
3.613599940E0,-1.335351467E0,2.072513103E0,-2.202627420E0
3.615764378E0,-1.317178130E0,2.080148935E0,-2.239279270E0
3.617914778E0,-1.297630548E0,2.087937355E0,-2.277000189E0
3.620067173E0,-1.274570346E0,2.090838909E0,-2.311361313E0
3.622214379E0,-1.249066710E0,2.091297150E0,-2.345569849E0
3.624365065E0,-1.222188592E0,2.090380907E0,-2.377487421E0
3.626515495E0,-1.191798091E0,2.085952044E0,-2.408183575E0
3.628665958E0,-1.158811331E0,2.080148935E0,-2.438879490E0
3.630816398E0,-1.124602914E0,2.070833206E0,-2.467284679E0
3.632967176E0,-1.088103771E0,2.062586546E0,-2.493093729E0
3.635118543E0,-1.050230026E0,2.050674677E0,-2.519055605E0
3.637267886E0,-1.012356400E0,2.036319256E0,-2.542573929E0
3.639418562E0,-9.695958495E-1,2.021964073E0,-2.564870358E0
3.641568931E0,-9.280570149E-1,2.006386995E0,-2.584723473E0
3.643719495E0,-8.840747476E-1,1.990657091E0,-2.604576588E0
3.645869997E0,-8.376489878E-1,1.972636580E0,-2.620917320E0
3.648017275E0,-7.924449444E-1,1.953241587E0,-2.634661913E0
3.650158387E0,-7.435756922E-1,1.937664509E0,-2.646115541E0
3.652322399E0,-6.934847832E-1,1.918269634E0,-2.657569170E0
3.654471885E0,-6.420193911E-1,1.898874640E0,-2.663983345E0
3.656625662E0,-5.907067060E-1,1.877036214E0,-2.669328451E0
3.658772849E0,-5.357288122E-1,1.856419444E0,-2.672230005E0
3.660923391E0,-4.830417037E-1,1.834581017E0,-2.676353455E0
3.663073935E0,-4.292855561E-1,1.808924675E0,-2.675589800E0
3.665224762E0,-3.765984178E-1,1.783268332E0,-2.673757076E0
3.667375194E0,-3.226895630E-1,1.757764697E0,-2.669328451E0
3.669526398E0,-2.664899528E-1,1.730886698E0,-2.666121244E0
3.671675751E0,-2.113593817E-1,1.700343370E0,-2.660623550E0
3.673826446E0,-1.562287807E-1,1.671021819E0,-2.653751373E0
3.675976877E0,-1.024726480E-1,1.638035178E0,-2.645810127E0
3.678127430E0,-4.612032697E-2,1.607491851E0,-2.635425329E0
3.680274606E0,9.010262787E-3,1.570687294E0,-2.622597218E0
3.682415577E0,5.925392732E-2,1.535257101E0,-2.612212420E0
3.684576863E0,1.107193232E-1,1.499826908E0,-2.599384308E0
3.686717416E0,1.609629989E-1,1.460578799E0,-2.586556196E0
3.688879811E0,2.124283910E-1,1.422552466E0,-2.571284533E0
3.691017322E0,2.590068579E-1,1.384526134E0,-2.557234526E0
3.693184284E0,3.080287874E-1,1.345430732E0,-2.540894032E0
3.695328479E0,3.533855379E-1,1.303739190E0,-2.525622368E0
3.697472207E0,4.011857510E-1,1.262047648E0,-2.507907152E0
3.699632444E0,4.440990388E-1,1.221577764E0,-2.491413832E0
3.701782956E0,4.859432876E-1,1.179733515E0,-2.473698854E0
3.703937590E0,5.264131427E-1,1.138041973E0,-2.454914808E0
3.706083727E0,5.668829679E-1,1.097572088E0,-2.435977936E0
3.708234626E0,6.049093008E-1,1.058323979E0,-2.417041063E0
3.710384762E0,6.404922009E-1,1.014036298E0,-2.396882534E0
3.712532966E0,6.760751009E-1,9.735664725E-1,-2.377945662E0
3.714676358E0,7.092145681E-1,9.341656566E-1,-2.357787132E0
3.716836412E0,7.399105430E-1,8.936958313E-1,-2.337475777E0
3.718986976E0,7.718282342E-1,8.530732989E-1,-2.317317247E0
3.721140662E0,7.990117669E-1,8.138252497E-1,-2.298380375E0
3.723287655E0,8.248208165E-1,7.732026577E-1,-2.279443741E0
3.725438360E0,8.481863737E-1,7.339546084E-1,-2.260354042E0
3.727588720E0,8.727737069E-1,6.969972253E-1,-2.242639065E0
3.729736059E0,8.912523985E-1,6.589708924E-1,-2.224771261E0
3.731876633E0,9.097310901E-1,6.220135093E-1,-2.206903458E0
3.734040136E0,9.282097220E-1,5.864306092E-1,-2.190257311E0
3.736190861E0,9.453139901E-1,5.519167781E-1,-2.174833059E0
3.738345606E0,9.576839805E-1,5.187773108E-1,-2.159408569E0
3.740491847E0,9.688322544E-1,4.856378734E-1,-2.143984318E0
3.742642319E0,9.787588120E-1,4.584543705E-1,-2.129628897E0
3.744792678E0,9.850202203E-1,4.277583957E-1,-2.116647959E0
3.746939580E0,9.923505783E-1,3.995058835E-1,-2.103514433E0
3.749079310E0,9.961684942E-1,3.749185503E-1,-2.092824221E0
3.751244521E0,9.975429177E-1,3.514002264E-1,-2.079690695E0
3.753396051E0,9.975429177E-1,3.292563558E-1,-2.066404343E0
3.755550215E0,9.952521920E-1,3.071125150E-1,-2.056936026E0
3.757696161E0,9.928087592E-1,2.849686444E-1,-2.045024157E0
3.759845991E0,9.856310487E-1,2.663372457E-1,-2.032959461E0
3.761996514E0,9.783006907E-1,2.478585690E-1,-2.023338318E0
3.764147017E0,9.711230397E-1,2.293798923E-1,-2.012495518E0
3.766297590E0,9.601274729E-1,2.121229619E-1,-2.002874374E0
3.768448012E0,9.492846131E-1,1.973094791E-1,-1.993253350E0
3.770598920E0,9.370672703E-1,1.849394590E-1,-1.983632207E0
3.772750226E0,9.224064946E-1,1.699732542E-1,-1.975080013E0
3.774899639E0,9.066767693E-1,1.588249654E-1,-1.964237213E0
3.777050112E0,8.883507848E-1,1.501201391E-1,-1.954463363E0
3.779200605E0,8.688030839E-1,1.414152980E-1,-1.944689512E0
3.781351808E0,8.504771590E-1,1.351539344E-1,-1.936137438E0
3.783500317E0,8.261952400E-1,1.301143020E-1,-1.926363587E0
3.785639192E0,8.029823899E-1,1.224784851E-1,-1.917811394E0
3.787802766E0,7.785477638E-1,1.174388453E-1,-1.906815886E0
3.789953828E0,7.516697049E-1,1.148426682E-1,-1.896889329E0
3.792107250E0,7.223481536E-1,1.134682223E-1,-1.887115479E0
3.794254244E0,6.944010854E-1,1.120937690E-1,-1.878410578E0
3.796404582E0,6.675229669E-1,1.105666086E-1,-1.868636727E0
3.798555034E0,6.345362663E-1,1.091921628E-1,-1.857488513E0
3.800705516E0,6.027712822E-1,1.102611795E-1,-1.845118523E0
3.802855988E0,5.722280145E-1,1.087340117E-1,-1.835191965E0
3.805006805E0,5.380195379E-1,1.122464910E-1,-1.824043632E0
3.807158162E0,5.050328374E-1,1.133155003E-1,-1.811673641E0
3.809307800E0,4.709770977E-1,1.154535338E-1,-1.800525308E0
3.811454966E0,4.355469346E-1,1.140790880E-1,-1.787086248E0
3.813595906E0,3.976732790E-1,1.149953827E-1,-1.773494482E0
3.815758981E0,3.622430861E-1,1.160643995E-1,-1.759902716E0
3.817909535E0,3.243694305E-1,1.194241568E-1,-1.747532725E0
3.820063475E0,2.889392674E-1,1.241583601E-1,-1.733788252E0
3.822208657E0,2.510656118E-1,1.250746548E-1,-1.718974829E0
3.824349242E0,2.133446932E-1,1.296561509E-1,-1.704161286E0
3.826511452E0,1.742493063E-1,1.331686229E-1,-1.686904430E0
3.828661905E0,1.339322031E-1,1.377501190E-1,-1.669647455E0
3.830815641E0,9.483683109E-2,1.447750628E-1,-1.652237773E0
3.832962960E0,5.207626149E-2,1.505782902E-1,-1.632537365E0
3.835113482E0,1.175915636E-2,1.600466967E-1,-1.612684250E0
3.837264006E0,-3.100141138E-2,1.707368344E-1,-1.592831135E0
3.839414803E0,-7.360926270E-2,1.826487035E-1,-1.571756244E0
3.841566047E0,-1.151480973E-1,1.933388561E-1,-1.549459696E0
3.843715451E0,-1.591303945E-1,2.090686262E-1,-1.529606581E0
3.845867530E0,-2.043344229E-1,2.270891517E-1,-1.506088257E0
3.848024818E0,-2.483167201E-1,2.451096773E-1,-1.483639002E0
3.850176459E0,-2.910772860E-1,2.643519342E-1,-1.460120678E0
3.852317501E0,-3.375030458E-1,2.848159075E-1,-1.437671304E0
3.854466346E0,-3.827070892E-1,3.077233732E-1,-1.414000273E0
3.856616370E0,-4.279111028E-1,3.306308091E-1,-1.390482068E0
3.858770026E0,-4.706716835E-1,3.535382748E-1,-1.368032694E0
3.860919348E0,-5.158756971E-1,3.801108897E-1,-1.344361663E0
3.863069983E0,-5.610797405E-1,4.066835344E-1,-1.320690632E0
3.865220109E0,-6.038402915E-1,4.321871698E-1,-1.299463034E0
3.867370987E0,-6.504187584E-1,4.587597847E-1,-1.275792122E0
3.869521470E0,-6.968445182E-1,4.865541756E-1,-1.253342748E0
3.871668615E0,-7.396050692E-1,5.143485069E-1,-1.231962442E0
3.873809617E0,-7.835873961E-1,5.410739183E-1,-1.210734963E0
3.875974146E0,-8.312348723E-1,5.700899959E-1,-1.189507365E0
3.878123204E0,-8.752171993E-1,5.966626406E-1,-1.168279767E0
3.880277145E0,-9.179777503E-1,6.221662760E-1,-1.148273945E0
3.882424270E0,-9.607383013E-1,6.475171447E-1,-1.128268123E0
3.884574865E0,-1.006095052E0,6.754642725E-1,-1.108262300E0
3.886725397E0,-1.047633886E0,6.995934248E-1,-1.088256478E0
3.888876347E0,-1.091616154E0,7.237225771E-1,-1.069472313E0
3.891027653E0,-1.133154988E0,7.480044961E-1,-1.049619198E0
3.893176823E0,-1.175915599E0,7.696902156E-1,-1.030835152E0
3.895323123E0,-1.216232657E0,7.939720750E-1,-1.010829210E0
3.897477919E0,-1.255328059E0,8.144360781E-1,-9.909761548E-1
3.899628320E0,-1.295645237E0,8.349000812E-1,-9.697485566E-1
3.901779850E0,-1.333518863E0,8.530732989E-1,-9.486737251E-1
3.903929345E0,-1.371392488E0,8.710938692E-1,-9.275988936E-1
3.906079785E0,-1.409266114E0,8.866708875E-1,-9.065240026E-1
3.908230624E0,-1.444696307E0,9.022479653E-1,-8.830057383E-1
3.910382571E0,-1.480126500E0,9.178250432E-1,-8.594874144E-1
3.912534274E0,-1.513113260E0,9.298896194E-1,-8.359690905E-1
3.914681725E0,-1.545947194E0,9.430232048E-1,-8.112290502E-1
3.916832216E0,-1.578933954E0,9.523389339E-1,-7.841982841E-1
3.918981986E0,-1.610698938E0,9.581421614E-1,-7.557930350E-1
3.921133261E0,-1.639867783E0,9.663888216E-1,-7.275404930E-1
3.923280570E0,-1.670410991E0,9.697485566E-1,-6.992880106E-1
3.925425610E0,-1.698510766E0,9.753990769E-1,-6.685920358E-1
3.927601269E0,-1.727679610E0,9.763153791E-1,-6.366742849E-1
3.929735138E0,-1.752114296E0,9.795224071E-1,-6.049093008E-1
3.931889009E0,-1.778839588E0,9.766207933E-1,-5.717698932E-1
3.934032380E0,-1.801899791E0,9.714284539E-1,-5.387831330E-1
3.936186788E0,-1.826334357E0,9.673051238E-1,-5.033529401E-1
3.938337199E0,-1.850616217E0,9.619600177E-1,-4.667010605E-1
3.940487640E0,-1.871232986E0,9.541715384E-1,-4.288274050E-1
3.942638458E0,-1.893071413E0,9.451612234E-1,-3.909537494E-1
3.944789815E0,-1.916131616E0,9.337075353E-1,-3.518583775E-1
3.946935994E0,-1.936748266E0,9.222537875E-1,-3.129157126E-1
3.949074056E0,-1.954921484E0,9.083566070E-1,-2.725986242E-1
3.951226887E0,-1.972025752E0,8.943067193E-1,-2.324342281E-1
3.953390849E0,-1.988977194E0,8.791878223E-1,-1.910481006E-1
3.955544239E0,-2.003332615E0,8.640688658E-1,-1.484402567E-1
3.957695301E0,-2.019062281E0,8.451320529E-1,-1.058324054E-1
3.959843768E0,-2.031126976E0,8.287914395E-1,-6.322455406E-2
3.961993701E0,-2.044413328E0,8.100073338E-1,-1.939497143E-2
3.964143146E0,-2.056477785E0,7.886270285E-1,2.565634064E-2
3.966293312E0,-2.067320824E0,7.686212063E-1,6.933320314E-2
3.968443886E0,-2.074498415E0,7.447974682E-1,1.156062484E-1
3.970594693E0,-2.082897663E0,7.235698700E-1,1.605048478E-1
3.972745165E0,-2.092366219E0,6.985244155E-1,2.066251636E-1
3.974895657E0,-2.098322153E0,6.710354686E-1,2.553416789E-1
3.977046313E0,-2.103056431E0,6.424775124E-1,3.025310040E-1
3.979197660E0,-2.106415987E0,6.125451326E-1,3.498730659E-1
3.981347195E0,-2.109928608E0,5.838344693E-1,3.972151279E-1
3.983492734E0,-2.113288403E0,5.551238060E-1,4.457789063E-1
3.985626350E0,-2.115579128E0,5.241223574E-1,4.955644310E-1
3.987798611E0,-2.115426302E0,4.966334403E-1,5.464189649E-1
3.989949245E0,-2.116342545E0,4.654793143E-1,5.949827433E-1
3.992105068E0,-2.114968300E0,4.367686510E-1,6.459900141E-1
3.994250372E0,-2.113440990E0,4.080579877E-1,6.980662346E-1
3.996401444E0,-2.112066507E0,3.756821156E-1,7.478517890E-1
3.998550960E0,-2.109317780E0,3.446807265E-1,7.974845767E-1
4.000701635E0,-2.106721401E0,3.171917796E-1,8.484918475E-1
4.002852108E0,-2.100307465E0,2.835941911E-1,9.007207751E-1
4.005002640E0,-2.097711325E0,2.512183189E-1,9.515753388E-1
4.007153133E0,-2.092518806E0,2.226603776E-1,1.001360893E0
4.009303523E0,-2.086257458E0,1.890627891E-1,1.052215338E0
4.011450749E0,-2.078621626E0,1.542434692E-1,1.101848245E0
4.013593287E0,-2.069916964E0,1.218676195E-1,1.150259256E0
4.015760238E0,-2.059837580E0,8.720101416E-2,1.198670268E0
4.017905634E0,-2.051132679E0,5.360342562E-2,1.247234106E0
4.020059340E0,-2.038609982E0,1.771509275E-2,1.293048978E0
4.022205265E0,-2.023796558E0,-1.954768784E-2,1.339016676E0
4.024356968E0,-2.011273861E0,-5.299255997E-2,1.383762479E0
4.026507735E0,-1.998903751E0,-8.888089657E-2,1.428508401E0
4.028659254E0,-1.982715845E0,-1.223257631E-1,1.469589114E0
4.030809532E0,-1.964237213E0,-1.631010175E-1,1.511891484E0
4.032958987E0,-1.948202014E0,-2.002110779E-1,1.550375938E0
4.035109327E0,-1.925905347E0,-2.397646159E-1,1.586569786E0
4.037259992E0,-1.906204939E0,-2.780964077E-1,1.622610807E0
4.039410790E0,-1.883908391E0,-3.187189400E-1,1.657582879E0
4.041560631E0,-1.858099341E0,-3.558290005E-1,1.691180468E0
4.043710361E0,-1.834733725E0,-3.952298164E-1,1.722487330E0
4.045862165E0,-1.806481242E0,-4.334088862E-1,1.752419710E0
4.048013542E0,-1.778076053E0,-4.703662395E-1,1.781283021E0
4.050163139E0,-1.747380018E0,-5.073235631E-1,1.809993744E0
4.052313478E0,-1.714240551E0,-5.455026627E-1,1.837482691E0
4.054463015E0,-1.684766293E0,-5.824599862E-1,1.865124345E0
4.056611025E0,-1.649183393E0,-6.206390858E-1,1.891391516E0
4.058764975E0,-1.617112994E0,-6.588181853E-1,1.917658687E0
4.060915365E0,-1.582751870E0,-6.956228018E-1,1.944078684E0
4.063066956E0,-1.545947194E0,-7.350236177E-1,1.967902422E0
4.065216910E0,-1.512807727E0,-7.719809413E-1,1.991726160E0
4.067364686E0,-1.476003170E0,-8.075638413E-1,2.015702486E0
4.069517610E0,-1.439198494E0,-8.457429409E-1,2.039526224E0
4.071667867E0,-1.402393937E0,-8.825475574E-1,2.063350201E0
4.073818981E0,-1.365436554E0,-9.219483733E-1,2.083508730E0
4.075965515E0,-1.328631878E0,-9.599747062E-1,2.104888916E0
4.078106211E0,-1.291827321E0,-9.955576062E-1,2.126421928E0
4.080270162E0,-1.255022645E0,-1.031293273E0,2.145358801E0
4.082424337E0,-1.216996312E0,-1.068097830E0,2.164295673E0
4.084587881E0,-1.180191636E0,-1.106124282E0,2.184606791E0
4.086733876E0,-1.143387079E0,-1.139263630E0,2.202322006E0
4.088871816E0,-1.107804179E0,-1.173624873E0,2.217746258E0
4.091019652E0,-1.072221279E0,-1.207985997E0,2.235461473E0
4.093166585E0,-1.037860036E0,-1.239903688E0,2.250885725E0
4.095311247E0,-1.001055479E0,-1.275486588E0,2.267379045E0
4.097475107E0,-9.679159522E-1,-1.308626056E0,2.282803535E0
4.099625355E0,-9.349292517E-1,-1.340543747E0,2.297006130E0
4.101778054E0,-9.042332768E-1,-1.372461438E0,2.311208725E0
4.103929523E0,-8.735373020E-1,-1.400714040E0,2.324189425E0
4.106089282E0,-8.416196108E-1,-1.430188298E0,2.337170362E0
4.108226265E0,-8.145887852E-1,-1.457219005E0,2.351372957E0
4.110373156E0,-7.864890099E-1,-1.485318899E0,2.361910582E0
4.112507464E0,-7.619016767E-1,-1.508684397E0,2.375044107E0
4.114665098E0,-7.360926270E-1,-1.534493446E0,2.385581493E0
4.116829485E0,-7.128797174E-1,-1.554193854E0,2.396271706E0
4.118981910E0,-6.907358766E-1,-1.579850197E0,2.408183575E0
4.121132564E0,-6.711881757E-1,-1.597107172E0,2.417651892E0
4.123279670E0,-6.527095437E-1,-1.615585804E0,2.425898552E0
4.125430325E0,-6.356052756E-1,-1.633911848E0,2.434145212E0
4.127580929E0,-6.183483601E-1,-1.649947047E0,2.442391872E0
4.129731177E0,-6.061310172E-1,-1.667051196E0,2.449569702E0
4.131881842E0,-5.937610269E-1,-1.679421306E0,2.455525637E0
4.134033189E0,-5.839871764E-1,-1.691638589E0,2.461328745E0
4.136182551E0,-5.754350424E-1,-1.705077648E0,2.464841366E0
4.138333298E0,-5.691736937E-1,-1.715004206E0,2.468353748E0
4.140483699E0,-5.630650520E-1,-1.721112847E0,2.469575405E0
4.142634272E0,-5.618433356E-1,-1.727221489E0,2.470644474E0
4.144784744E0,-5.618433356E-1,-1.732108355E0,2.469422817E0
4.146931890E0,-5.606215596E-1,-1.735773563E0,2.468200922E0
4.149072891E0,-5.618433356E-1,-1.739438772E0,2.465604782E0
4.151237116E0,-5.655084848E-1,-1.740660548E0,2.460717916E0
4.153386713E0,-5.716171265E-1,-1.738216996E0,2.458427191E0
4.155537978E0,-5.801692605E-1,-1.734399199E0,2.451096773E0
4.157674819E0,-5.900958180E-1,-1.730733991E0,2.447584391E0
4.159830305E0,-6.023131609E-1,-1.723403573E0,2.440406561E0
4.161988752E0,-6.133087277E-1,-1.715920448E0,2.433076382E0
4.164140425E0,-6.269004345E-1,-1.702481389E0,2.426051378E0
4.166286197E0,-6.403394938E-1,-1.688889742E0,2.415208578E0
4.168441146E0,-6.588181853E-1,-1.674228907E0,2.404518366E0
4.170590589E0,-6.783658266E-1,-1.655750275E0,2.393828154E0
4.172742597E0,-6.968445182E-1,-1.633606434E0,2.380694628E0
4.174891583E0,-7.188356519E-1,-1.609019041E0,2.367560863E0
4.177042076E0,-7.397578359E-1,-1.581988215E0,2.354580164E0
4.179192884E0,-7.606799603E-1,-1.552514076E0,2.339155674E0
4.181343040E0,-7.864890099E-1,-1.520596266E0,2.324953079E0
4.183490726E0,-8.098546267E-1,-1.485013366E0,2.309528828E0
4.185636670E0,-8.332201838E-1,-1.444390893E0,2.294104338E0
4.187791221E0,-8.578075171E-1,-1.403921008E0,2.277611017E0
4.189932609E0,-8.848382831E-1,-1.358411551E0,2.258674145E0
4.192097841E0,-9.118691087E-1,-1.313054800E0,2.242180824E0
4.194246034E0,-9.376781583E-1,-1.265101910E0,2.224618435E0
4.196399669E0,-9.598219991E-1,-1.214705586E0,2.206903458E0
4.198546896E0,-9.894489646E-1,-1.164461851E0,2.187966585E0
4.200697734E0,-1.012814522E0,-1.112843752E0,2.166738987E0
4.202845938E0,-1.039845347E0,-1.060003877E0,2.146733284E0
4.204986308E0,-1.062141895E0,-1.005942345E0,2.126574516E0
4.207149211E0,-1.086729288E0,-9.555459619E-1,2.102903605E0
4.209296173E0,-1.113760114E0,-9.051495790E-1,2.080301523E0
4.211439799E0,-1.137125611E0,-8.535314798E-1,2.057699680E0
4.213600088E0,-1.159422278E0,-8.068002462E-1,2.032806873E0
4.215750945E0,-1.180344343E0,-7.576256394E-1,2.010204792E0
4.217905029E0,-1.201266527E0,-7.108944058E-1,1.985159278E0
4.220053120E0,-1.221119642E0,-6.641632318E-1,1.961335540E0
4.222202422E0,-1.238376617E0,-6.223189831E-1,1.936137438E0
4.224353057E0,-1.255633473E0,-5.778785348E-1,1.911091924E0
4.226503457E0,-1.271668673E0,-5.348125100E-1,1.884824753E0
4.228651702E0,-1.285260439E0,-4.917465150E-1,1.859626532E0
4.230794168E0,-1.295339704E0,-4.547891617E-1,1.834581017E0
4.232955555E0,-1.304044604E0,-4.164573848E-1,1.808161139E0
4.235106809E0,-1.311527729E0,-3.807217777E-1,1.782962918E0
4.237259550E0,-1.319010735E0,-3.462078869E-1,1.755168557E0
4.239406269E0,-1.321606994E0,-3.116939962E-1,1.728748679E0
4.241556709E0,-1.325424910E0,-2.819143236E-1,1.699732542E0
4.243702910E0,-1.326799273E0,-2.510656118E-1,1.672090888E0
4.245839952E0,-1.325730324E0,-2.237294018E-1,1.641853094E0
4.248005114E0,-1.325883031E0,-1.977676302E-1,1.611615181E0
4.250145851E0,-1.322370529E0,-1.728748679E-1,1.581377387E0
4.252314064E0,-1.317636371E0,-1.518000066E-1,1.549765110E0
4.254461026E0,-1.312902093E0,-1.293507218E-1,1.515862107E0
4.256613959E0,-1.306946158E0,-1.105666086E-1,1.480584621E0
4.258761380E0,-1.298546791E0,-8.933904022E-2,1.444238186E0
4.260911383E0,-1.287703991E0,-7.315111160E-2,1.407738924E0
4.263061835E0,-1.278082848E0,-5.803219974E-2,1.368643522E0
4.265212001E0,-1.270905137E0,-4.291328415E-2,1.329700947E0
4.267361965E0,-1.258840561E0,-3.008511290E-2,1.288314819E0
4.269513424E0,-1.247997642E0,-1.618792862E-2,1.248150468E0
4.271664943E0,-1.237154841E0,-3.512475174E-3,1.203099132E0
4.273814560E0,-1.222646832E0,5.497787148E-3,1.159116745E0
4.275965123E0,-1.209360480E0,1.466076635E-2,1.114065528E0
4.278115169E0,-1.196074128E0,2.367102914E-2,1.067639709E0
4.280266087E0,-1.184009552E0,3.023782931E-2,1.021214008E0
4.282415004E0,-1.168279767E0,3.817907721E-2,9.749409556E-1
4.284561935E0,-1.156215191E0,4.352414981E-2,9.285151958E-1
4.286717504E0,-1.141707182E0,5.253441259E-2,8.808676600E-1
4.288868850E0,-1.128420830E0,5.925392732E-2,8.332201838E-1
4.291019373E0,-1.113912821E0,6.337726861E-2,7.857254148E-1
4.293168746E0,-1.103069901E0,7.009678334E-2,7.380779386E-1
4.295318963E0,-1.089783549E0,7.666359097E-2,6.916521788E-1
4.297469812E0,-1.077566266E0,8.078692853E-2,6.464481354E-1
4.299620284E0,-1.064279914E0,8.872817457E-2,6.000223756E-1
4.301770807E0,-1.054658890E0,9.407325089E-2,5.537493229E-1
4.303921289E0,-1.047481179E0,9.941831976E-2,5.085453391E-1
4.306072757E0,-1.036638379E0,1.059851199E-1,4.645630121E-1
4.308222161E0,-1.030682325E0,1.088867337E-1,4.205807149E-1
4.310369652E0,-1.024726391E0,1.117883399E-1,3.779728711E-1
4.312510439E0,-1.018770456E0,1.146899462E-1,3.352122903E-1
4.314673800E0,-1.016479731E0,1.175915599E-1,2.912299931E-1
4.316824160E0,-1.015410781E0,1.192714423E-1,2.496911734E-1
4.318977857E0,-1.015410781E0,1.220203340E-1,2.095267773E-1
4.321125337E0,-1.018006921E0,1.249219403E-1,1.667662114E-1
4.323276806E0,-1.023046613E0,1.252273768E-1,1.252273768E-1
4.325426332E0,-1.028086185E0,1.281289905E-1,8.506298810E-2
4.327576672E0,-1.038012743E0,1.333213449E-1,4.474587739E-2
4.329723868E0,-1.046717644E0,1.374446750E-1,7.024950348E-3
4.331864595E0,-1.061531067E0,1.426370293E-1,-3.436116874E-2
4.334028200E0,-1.078635335E0,1.466076523E-1,-7.223481685E-2
4.336178620E0,-1.095892191E0,1.543961912E-1,-1.098030284E-1
4.338332632E0,-1.118036151E0,1.620320082E-1,-1.475239545E-1
4.340480662E0,-1.141401768E0,1.733330190E-1,-1.852448881E-1
4.342630107E0,-1.165989041E0,1.834122837E-1,-2.203696370E-1
4.344780925E0,-1.196684957E0,1.971567571E-1,-2.554943860E-1
4.346927928E0,-1.226159215E0,2.145664245E-1,-2.918408811E-1
4.349068889E0,-1.260520458E0,2.307543457E-1,-3.269656301E-1
4.351231984E0,-1.294881582E0,2.506074607E-1,-3.620903790E-1
4.353382741E0,-1.335351467E0,2.739730477E-1,-3.933972120E-1
4.355536458E0,-1.375821233E0,2.987131178E-1,-4.271475375E-1
4.357684682E0,-1.418887258E0,3.258966208E-1,-4.608978331E-1
4.359833983E0,-1.463022232E0,3.506366611E-1,-4.909829497E-1
4.361984658E0,-1.509600759E0,3.813326359E-1,-5.221370459E-1
4.364135009E0,-1.556179166E0,4.109596014E-1,-5.510004759E-1
